T [ms],AccX [mg],AccY [mg],AccZ [mg],GyroX [mdps],GyroY [mdps],GyroZ [mdps]
60947, 14, 74, 1022, 2520, -210, 1820
60967, 16, 69, 1020, 2450, -280, 1820
60987, 17, 72, 1020, 2450, -280, 1820
61007, 18, 73, 1017, 2450, -210, 1820
61027, 17, 73, 1022, 2450, -210, 1820
61047, 17, 74, 1020, 2450, -210, 1750
61067, 16, 70, 1020, 2450, -280, 1750
61087, 17, 70, 1017, 2380, -210, 1820
61107, 14, 72, 1023, 2450, -210, 1750
61127, 15, 73, 1022, 2450, -210, 1820
61147, 16, 73, 1021, 2450, -280, 1750
61167, 16, 73, 1020, 2450, -280, 1820
61187, 15, 70, 1020, 2380, -210, 1820
61207, 16, 72, 1016, 2380, -140, 1820
61227, 17, 72, 1019, 2450, -210, 1820
61247, 17, 72, 1019, 2450, -280, 1820
61267, 17, 73, 1020, 2450, -210, 1820
61287, 18, 72, 1020, 2450, -70, 1820
61307, 16, 72, 1019, 2380, -70, 1890
61327, 16, 73, 1018, 2380, -140, 1820
61347, 14, 73, 1021, 2380, -140, 1820
61367, 14, 73, 1019, 2450, -210, 1820
61387, 16, 71, 1019, 2450, -140, 1820
61407, 15, 71, 1017, 2450, -210, 1820
61427, 15, 73, 1019, 2450, -210, 1820
61447, 15, 73, 1020, 2450, -210, 1820
61467, 16, 75, 1019, 2520, -210, 1820
61487, 16, 71, 1018, 2450, -210, 1820
61507, 18, 70, 1017, 2450, -210, 1820
61527, 16, 73, 1018, 2450, -140, 1750
61547, 15, 73, 1020, 2520, -210, 1820
61567, 14, 75, 1020, 2450, -280, 1750
61587, 16, 71, 1019, 2450, -140, 1820
61607, 16, 73, 1019, 2450, -210, 1750
61627, 15, 72, 1019, 2520, -210, 1750
61647, 14, 74, 1019, 2520, -280, 1750
61667, 17, 79, 1012, 2730, -280, 1750
61687, 16, 68, 1021, 3570, -280, 1680
61707, 17, 73, 1019, 3220, -280, 1680
61727, 19, 72, 1020, 2940, -280, 1680
61747, 18, 75, 1020, 3570, -210, 1610
61767, 18, 73, 1020, 3290, -210, 1400
61787, 17, 74, 1019, 4690, -280, 1190
61807, 16, 75, 1018, 3850, -210, 2660
61827, 17, 75, 1016, 2450, -280, 1680
61847, 16, 74, 1022, 2450, -210, 1750
61867, 14, 75, 1019, 2450, -280, 1610
61887, 16, 74, 1019, 2450, -280, 1610
61907, 15, 75, 1018, 2450, -140, 1750
61927, 15, 74, 1018, 2380, -210, 1750
61947, 18, 75, 1020, 2450, -140, 1750
61967, 16, 76, 1017, 2450, -210, 1750
61987, 18, 75, 1020, 2450, -280, 1750
62007, 16, 75, 1020, 2450, -350, 1750
62027, 16, 76, 1020, 2450, -210, 1750
62047, 15, 75, 1020, 2450, -140, 1820
62067, 16, 74, 1019, 2450, -140, 1820
62087, 14, 75, 1020, 2450, -210, 1820
62107, 15, 75, 1019, 2450, -210, 1820
62127, 13, 76, 1017, 2450, -280, 1750
62147, 14, 77, 1021, 2450, -210, 1750
62167, 16, 75, 1019, 2450, -140, 1820
62187, 16, 76, 1020, 2450, -210, 1820
62207, 18, 75, 1019, 2450, -210, 1820
62227, 16, 74, 1020, 2450, -210, 1820
62247, 16, 75, 1018, 2450, -210, 1820
62267, 16, 75, 1020, 2450, -210, 1820
62287, 16, 75, 1020, 2450, -210, 1820
62307, 17, 75, 1018, 2450, -280, 1820
62327, 11, 77, 1017, 2450, -210, 1820
62347, 15, 74, 1020, 2450, -210, 1820
62367, 15, 75, 1020, 2450, -280, 1820
62387, 16, 73, 1020, 2450, -280, 1820
62407, 18, 75, 1016, 2450, -280, 1820
62427, 16, 74, 1019, 2450, -210, 1820
62447, 16, 74, 1017, 2450, -210, 1820
62467, 17, 74, 1019, 2450, -210, 1820
62487, 15, 76, 1022, 2450, -210, 1820
62507, 16, 74, 1018, 2450, -280, 1820
62527, 11, 76, 1021, 2450, -210, 1820
62547, 14, 76, 1021, 2450, -210, 1890
62567, 15, 74, 1020, 2450, -280, 1890
62587, 16, 73, 1020, 2450, -280, 1890
62607, 14, 76, 1019, 2450, -350, 1890
62627, 16, 75, 1020, 2450, -280, 1890
62647, 18, 75, 1020, 2450, -210, 1890
62667, 19, 75, 1021, 2450, -210, 1820
62687, 18, 75, 1020, 2450, -210, 1750
62707, 17, 76, 1019, 2450, -210, 1750
62727, 17, 75, 1018, 2450, -210, 1750
62747, 14, 75, 1021, 2450, -210, 1820
62767, 14, 75, 1019, 2450, -280, 1820
62787, 14, 75, 1018, 2450, -280, 1750
62807, 13, 75, 1021, 2450, -210, 1820
62827, 13, 77, 1018, 2450, -210, 1820
62847, 17, 75, 1019, 2450, -280, 1820
62867, 16, 74, 1022, 2450, -280, 1820
62887, 19, 74, 1023, 2450, -280, 1820
62907, 16, 75, 1021, 2450, -280, 1820
62927, 17, 77, 1019, 2450, -280, 1820
62947, 18, 76, 1020, 2450, -210, 1820
62967, 18, 74, 1020, 2450, -210, 1820
62987, 13, 75, 1020, 2450, -280, 1820
63007, 15, 75, 1021, 2450, -210, 1820
63027, 15, 76, 1021, 2450, -210, 1820
63047, 15, 73, 1019, 2450, -210, 1750
63067, 16, 75, 1020, 2450, -280, 1820
63087, 15, 76, 1020, 2450, -280, 1820
63107, 18, 78, 1022, 2450, -280, 1820
63127, 18, 76, 1019, 2450, -210, 1820
63147, 18, 73, 1020, 2380, -140, 1820
63167, 17, 73, 1020, 2380, -210, 1820
63187, 16, 76, 1021, 2380, -210, 1820
63207, 15, 75, 1019, 2450, -210, 1820
63227, 13, 76, 1021, 2380, -210, 1750
63247, 13, 76, 1020, 2450, -210, 1750
63267, 13, 76, 1023, 2450, -280, 1750
63287, 15, 76, 1019, 2520, -350, 1750
63307, 15, 76, 1021, 2520, -280, 1820
63327, 16, 75, 1020, 2520, -280, 1820
63347, 18, 75, 1020, 2450, -210, 1820
63367, 20, 75, 1019, 2450, -210, 1750
63387, 19, 77, 1020, 2450, -140, 1750
63407, 19, 74, 1021, 2380, -140, 1750
63427, 14, 75, 1020, 2380, -210, 1750
63447, 14, 74, 1018, 2450, -210, 1820
63467, 13, 74, 1021, 2450, -140, 1820
63487, 13, 75, 1021, 2450, -210, 1890
63507, 15, 75, 1021, 2380, -140, 1750
63527, 13, 75, 1019, 2380, -140, 1750
63547, 17, 75, 1020, 2310, -210, 1750
63567, 17, 77, 1020, 2380, -210, 1820
63587, 17, 75, 1018, 2380, -350, 1820
63607, 19, 74, 1019, 2240, -280, 1890
63627, 18, 74, 1019, 2100, -210, 1890
63647, 16, 75, 1020, 2170, -210, 1890
63667, 17, 75, 1018, 2170, -210, 1820
63687, 15, 74, 1021, 1330, -210, 1820
63707, 14, 71, 1021, 1540, -210, 1820
63727, 14, 75, 1020, 2310, -210, 1820
63747, 16, 74, 1019, 2240, -280, 1890
63767, 17, 72, 1022, 1960, -280, 1890
63787, 17, 73, 1019, 1050, -210, 1820
63807, 15, 73, 1019, 2240, -280, 1680
63827, 19, 74, 1021, 2240, -210, 1750
63847, 19, 75, 1020, 2240, -210, 1820
63867, 17, 70, 1021, 2170, -280, 1750
63887, 16, 71, 1021, 2170, -350, 1680
63907, 16, 72, 1019, 2100, -350, 1610
63927, 16, 71, 1022, 2100, -350, 1540
63947, 11, 73, 1023, 1680, -280, 910
63967, 19, 71, 1022, 560, -280, -350
63987, 3, 196, 1078, 2240, -350, 1190
64007, 24, 71, 1019, 630, -2240, -25550
64027, 31, 62, 1022, 1120, -3290, -35560
64047, 21, 59, 1018, 1400, -2800, -31570
64067, -16, -3, 1031, 1540, -3080, -32340
64087, 8, 77, 1021, 1610, -3010, -30590
64107, 7, 74, 1024, 1540, -3850, -37310
64127, 30, 73, 1024, 1400, -4900, -51380
64147, -13, 38, 1024, 1400, -5530, -63000
64167, 33, 84, 1009, 1120, -5880, -66990
64187, -7, 99, 1028, 1120, -6510, -69230
64207, 58, 54, 1022, 1190, -6650, -71540
64227, -35, 100, 1023, 1120, -6510, -75320
64247, -22, 28, 1022, 1120, -6860, -79240
64267, 3, 76, 1018, 1120, -7560, -86520
64287, 51, 86, 1009, 910, -8050, -98000
64307, 44, 72, 1013, 840, -8750, -105000
64327, -14, 45, 1021, 840, -8190, -97160
64347, -25, 69, 1028, 980, -8330, -94990
64367, 51, 67, 1029, 700, -8610, -104720
64387, 4, 51, 1029, 560, -9870, -114310
64407, 12, 35, 1029, 490, -10080, -119070
64427, 39, 68, 1009, 490, -10150, -119770
64447, 26, 83, 1024, 420, -10850, -126840
64467, -32, 70, 1011, 350, -12530, -140140
64487, 34, 64, 1011, 140, -12950, -147770
64507, 16, 100, 1016, 140, -12390, -143290
64527, 43, 61, 1008, 350, -11130, -130970
64547, -34, 9, 1035, 560, -10220, -119630
64567, 56, 141, 1010, 700, -10990, -126840
64587, 30, 115, 1003, 490, -11760, -134260
64607, 81, 152, 1024, 350, -11130, -126840
64627, 30, 150, 1027, 210, -11130, -126420
64647, 17, 104, 1008, 210, -11060, -127050
64667, 18, 107, 1026, 280, -10220, -119770
64687, 44, 65, 1014, 560, -10290, -113680
64707, 34, 78, 1023, 560, -9450, -113260
64727, 14, 96, 1022, 840, -9450, -107800
64747, 12, 141, 1022, 630, -8330, -98140
64767, 27, 111, 1022, 490, -9030, -100520
64787, 69, 84, 1014, 630, -9380, -102830
64807, -45, 98, 1032, 770, -9170, -103390
64827, 33, 101, 1016, 910, -8960, -104720
64847, 38, 98, 1019, 1120, -8820, -100940
64867, 44, 74, 1018, 980, -6580, -78470
64887, 49, 83, 1022, 1400, -4760, -53130
64907, -17, 78, 1022, 2030, -1960, -22890
64927, -10, 72, 1009, 1960, -1540, -13300
64947, -87, 35, 1031, 1820, -2590, -24640
64967, 12, 66, 1027, 1750, -4620, -49770
64987, 95, 79, 1020, 1400, -4270, -55650
65007, 68, 95, 1021, 1470, -3500, -45920
65027, 47, 81, 1019, 1610, -3150, -34370
65047, 23, 73, 1019, 1960, -1750, -19110
65067, 22, 72, 1020, 2310, -350, -2730
65087, 20, 73, 1021, 2170, 420, 1540
65107, 20, 71, 1019, 2310, 70, 1890
65127, 22, 70, 1021, 2240, -280, 1750
65147, -145, -142, 1081, 2100, -420, 840
65167, 16, 70, 1021, 1260, -2380, -26390
65187, 5, 77, 1021, 2100, -1540, -15400
65207, -6, 100, 1017, 2030, -1750, -15610
65227, 20, 74, 1019, 2240, -910, -6650
65247, 20, 74, 1021, 2380, 70, 1890
65267, 19, 75, 1021, 2380, 280, 2100
65287, 21, 74, 1019, 2450, 70, 2170
65307, 21, 73, 1019, 2380, -70, 2100
65327, 20, 73, 1021, 2380, -210, 1890
65347, 21, 72, 1022, 2380, -210, 1960
65367, 21, 71, 1022, 2380, 0, 2240
65387, 20, 71, 1023, 2310, 70, 2240
65407, 20, 72, 1020, 2310, 0, 2100
65427, 19, 72, 1023, 2310, -70, 2170
65447, 18, 73, 1020, 2310, -70, 2520
65467, 21, 71, 1019, 2100, 140, 2940
65487, 9, 77, 1019, 1680, 350, 3920
65507, 18, 73, 1020, 700, 560, 7210
65527, 39, 48, 1024, 1890, 70, 4900
65547, 14, 77, 1020, 770, 1120, 17010
65567, -27, 115, 1013, 1960, 560, 12180
65587, 52, 40, 1028, 2240, 980, 16940
65607, 48, 45, 1024, 2450, 770, 12880
65627, 21, 69, 1020, 2380, 490, 6790
65647, 22, 67, 1020, 2380, 140, 2100
65667, 21, 68, 1022, 2380, 0, 1820
65687, 21, 70, 1021, 2380, -70, 1820
65707, 19, 68, 1020, 2380, 0, 1820
65727, 22, 70, 1022, 2380, -70, 1820
65747, 20, 70, 1019, 2380, -140, 1890
65767, 22, 69, 1020, 2380, -140, 1890
65787, 20, 70, 1022, 2380, -70, 1890
65807, 20, 69, 1022, 2310, 0, 1890
65827, 21, 68, 1019, 2380, -70, 1890
65847, 20, 68, 1021, 2380, -70, 1890
65867, 19, 70, 1019, 2380, -140, 1890
65887, -9, 78, 1008, 2310, -140, 2240
65907, 22, 67, 1021, 1680, 140, 3500
65927, 21, 68, 1019, 1120, 280, 4760
65947, 20, 68, 1021, 1820, 70, 3150
65967, 21, 68, 1021, 2240, 0, 2030
65987, 20, 67, 1020, 2310, -70, 1890
66007, 20, 68, 1021, 2380, -70, 1820
66027, 21, 69, 1020, 2310, -70, 1820
66047, 19, 68, 1022, 2380, -140, 1820
66067, 21, 67, 1020, 2380, -140, 1890
66087, 20, 68, 1022, 2380, -140, 1890
66107, 20, 67, 1021, 2310, -70, 1890
66127, 19, 68, 1020, 2310, 0, 1820
66147, 20, 68, 1020, 2310, 0, 1820
66167, 21, 68, 1022, 2380, -140, 1890
66187, 19, 68, 1023, 2380, -140, 1890
66207, 20, 70, 1020, 2380, -140, 1890
66227, 20, 70, 1021, 2380, -140, 1890
66247, 19, 69, 1019, 2380, -140, 1960
66267, 20, 70, 1020, 2380, -140, 1960
66287, 19, 68, 1021, 2380, -140, 1960
66307, 19, 67, 1021, 2380, -70, 1960
66327, 20, 66, 1018, 2380, -140, 1960
66347, 20, 67, 1020, 2310, 0, 1960
66367, 20, 67, 1021, 2240, 0, 1890
66387, 19, 69, 1020, 2310, -140, 1890
66407, 20, 67, 1020, 2310, -210, 1960
66427, 20, 67, 1019, 2310, -140, 1960
66447, 22, 69, 1019, 2310, -140, 1960
66467, 21, 67, 1019, 2310, -210, 1890
66487, 20, 68, 1023, 2380, -210, 1890
66507, 21, 67, 1021, 2380, -210, 1890
66527, 21, 68, 1019, 2380, -140, 1890
66547, 20, 67, 1020, 2380, -210, 1890
66567, 20, 67, 1020, 2380, -140, 1820
66587, 20, 68, 1020, 2380, -140, 1890
66607, 21, 68, 1021, 2380, -140, 1890
66627, 21, 68, 1021, 2310, -70, 1820
66647, 19, 66, 1020, 2380, -70, 1820
66667, 18, 65, 1021, 2450, -210, 1820
66687, 22, 68, 1021, 2380, -350, 1890
66707, 20, 68, 1021, 2380, -350, 1890
66727, 19, 67, 1023, 2380, -280, 1960
66747, 19, 67, 1021, 2450, -210, 1960
66767, 20, 66, 1020, 2380, -140, 2030
66787, 22, 66, 1017, 2380, -140, 2030
66807, 20, 65, 1022, 2170, 70, 1750
66827, 19, 69, 1020, 2310, 70, 1610
66847, 20, 67, 1022, 2380, -140, 1610
66867, 19, 66, 1020, 2380, -210, 1610
66887, 20, 68, 1022, 2450, -280, 1750
66907, 21, 67, 1019, 2450, -210, 1820
66927, 19, 67, 1023, 2450, -210, 1820
66947, 18, 66, 1019, 2380, -140, 1820
66967, 18, 66, 1021, 2380, -70, 1820
66987, 19, 67, 1021, 2380, -140, 1820
67007, 20, 66, 1021, 2450, -140, 1820
67027, 21, 67, 1020, 2450, -140, 1820
67047, 21, 68, 1018, 2450, -140, 1820
67067, 22, 66, 1019, 2450, -210, 1750
67087, 20, 67, 1021, 2380, -210, 1750
67107, 20, 66, 1020, 2380, -140, 1820
67127, 19, 66, 1018, 2380, -70, 1820
67147, 21, 68, 1019, 2380, -140, 1820
67167, 21, 66, 1019, 2380, -70, 1820
67187, 21, 67, 1020, 2380, -70, 1820
67207, 20, 67, 1019, 2380, -70, 1820
67227, 20, 66, 1022, 2380, -140, 1820
67247, 22, 67, 1017, 2310, 0, 1750
67267, 21, 66, 1019, 2310, 70, 1680
67287, 21, 66, 1020, 2380, 0, 1680
67307, 19, 67, 1021, 2380, 0, 1750
67327, 18, 67, 1020, 2450, -70, 1750
67347, 21, 67, 1020, 2380, -140, 1750
67367, 21, 67, 1019, 2380, -210, 1750
67387, 21, 67, 1020, 2380, -280, 1750
67407, -428, -104, 937, 2520, -910, 2240
67427, 55, 319, 1010, 490, 210, 11900
67447, 179, 108, 1014, 1400, 420, 4060
67467, 91, 57, 1027, 2310, -70, 2800
67487, 20, 68, 1021, 2590, -350, 7910
67507, 22, 67, 1020, 2380, -280, 2520
67527, 21, 66, 1022, 2380, 70, 1680
67547, 21, 66, 1018, 2380, 280, 1540
67567, 21, 67, 1021, 2380, 350, 1540
67587, 17, 64, 1022, 2240, 350, 1470
67607, 19, 65, 1022, 2310, 140, 1540
67627, 20, 67, 1018, 2310, 70, 1610
67647, 20, 66, 1019, 2380, -140, 1820
67667, 20, 66, 1021, 2310, -70, 1820
67687, 18, 66, 1022, 2310, 0, 1820
67707, 20, 67, 1021, 2310, 0, 1820
67727, 22, 65, 1018, 2310, -70, 1750
67747, 21, 64, 1020, 2310, -70, 1820
67767, 20, 65, 1021, 2380, -140, 1820
67787, 20, 65, 1020, 2380, -70, 1820
67807, 18, 67, 1021, 2310, 140, 1820
67827, 19, 67, 1021, 2310, 210, 1890
67847, 19, 66, 1021, 2380, 0, 1890
67867, 23, 66, 1019, 2380, -140, 1820
67887, 20, 65, 1018, 2380, 0, 1820
67907, 19, 65, 1020, 2310, 280, 1890
67927, 21, 66, 1020, 2310, 280, 1890
67947, 20, 65, 1019, 2380, 140, 1890
67967, 19, 66, 1019, 2380, -70, 1820
67987, 22, 65, 1019, 2380, -70, 1820
68007, 23, 65, 1017, 2380, 70, 1750
68027, -153, 4, 1029, 2310, 280, 2170
68047, 18, 64, 1019, 1540, 1540, 14420
68067, 19, 64, 1020, 2240, 350, 3500
68087, 20, 65, 1019, 2380, 140, 1680
68107, 20, 65, 1020, 2380, -140, 1680
68127, 18, 63, 1019, 2380, -280, 1750
68147, 18, 64, 1018, 2380, -70, 1820
68167, 18, 63, 1019, 2380, 0, 1750
68187, 21, 64, 1019, 2450, -70, 1750
68207, 21, 66, 1020, 2450, 0, 1820
68227, 18, 65, 1020, 2380, 0, 1820
68247, 17, 67, 1022, 2450, 0, 1820
68267, 18, 67, 1018, 2450, -140, 1820
68287, 20, 66, 1017, 2380, -70, 1820
68307, 20, 66, 1018, 2450, -70, 1820
68327, 19, 64, 1018, 2450, -70, 1820
68347, 19, 64, 1020, 2450, -140, 1820
68367, 18, 64, 1020, 2450, -70, 1820
68387, 19, 65, 1021, 2450, -210, 1820
68407, 17, 66, 1020, 2380, -280, 1820
68427, 19, 65, 1019, 2450, -140, 1820
68447, 19, 65, 1019, 2380, 0, 1820
68467, 18, 64, 1018, 2380, 0, 1820
68487, 18, 64, 1019, 2450, -210, 1820
68507, 21, 64, 1019, 2450, -140, 1820
68527, 19, 65, 1020, 2450, -140, 1750
68547, 19, 64, 1018, 2380, -140, 1750
68567, 18, 65, 1019, 2450, 0, 1680
68587, 21, 66, 1018, 2380, 0, 1680
68607, 19, 64, 1020, 2450, -70, 1610
68627, 88, 72, 1000, 2450, -70, 1540
68647, 31, 67, 1015, 1820, 910, -5880
68667, 5, 57, 1020, 910, 2030, -24080
68687, -38, 45, 1024, -840, 7630, -25830
68707, 0, 63, 1029, -3150, 14490, -27440
68727, 5, 61, 1018, -1610, 10150, -25130
68747, -33, 48, 1018, 840, 3220, -16380
68767, 18, 61, 1015, 1190, 3150, -13790
68787, -11, 60, 1017, -2310, 14140, -17220
68807, -11, 55, 1018, -3990, 19180, -13090
68827, -55, 42, 1019, -6580, 26950, -12530
68847, -49, 47, 1022, -6860, 28210, -14700
68867, -55, 46, 1021, -5810, 26600, -19460
68887, -30, 55, 1020, -6090, 29470, -24570
68907, -114, 25, 1020, -6230, 31570, -29050
68927, -44, 36, 1022, -7350, 35070, -28630
68947, -99, -80, 1049, -1400, 21490, -38150
68967, -116, 4, 1032, 16660, -24920, -67760
68987, -46, 42, 1034, 24920, -47740, -83090
69007, -61, 28, 1026, 34020, -77770, -100030
69027, 29, 122, 997, 35420, -91420, -90580
69047, -32, 41, 1022, 25060, -69300, -67830
69067, -21, 51, 1022, 7420, -20090, -43820
69087, -40, 50, 1022, 4130, -11480, -49910
69107, 62, 127, 1021, 1890, -3850, -46060
69127, 42, 70, 1017, 1470, -4760, -59500
69147, 57, 93, 1012, 1470, -4970, -63210
69167, 27, 64, 1024, 1680, -4060, -49910
69187, -21, 115, 1028, 1540, -2940, -38430
69207, 6, 99, 1010, 1680, -3360, -43750
69227, 15, 74, 1017, 1750, -5390, -63770
69247, 16, 97, 1019, 1820, -6650, -67200
69267, 26, 52, 1017, 1400, -6860, -76790
69287, 37, 121, 1008, 1470, -7910, -90650
69307, 36, 59, 1030, 1610, -9240, -100590
69327, 18, 78, 1008, 1330, -10570, -120190
69347, 7, 42, 1028, 1400, -9940, -114730
69367, -33, 59, 1024, 1540, -9170, -92260
69387, -3, 79, 1022, 1680, -5880, -68740
69407, 41, 75, 1026, 1820, -4760, -55790
69427, 66, 68, 1020, 2310, -4480, -46970
69447, 39, 76, 1011, 2380, -2660, -30450
69467, 17, 72, 1021, 2380, -980, -14140
69487, 69, 59, 1024, 2660, -700, -15190
69507, 57, 69, 1027, 1750, -630, -38010
69527, 125, 68, 1028, 2310, -1330, -21070
69547, 6, 80, 1011, 3570, -4340, -33390
69567, 1, 78, 1012, 4690, -5530, -38850
69587, 74, 75, 1020, 3290, -3290, -19950
69607, 77, 45, 1028, 2660, -3220, -18480
69627, 70, -29, 1006, 1820, -4900, -47390
69647, 119, 58, 1045, 700, -5180, -71400
69667, 41, 33, 992, 700, -7280, -89600
69687, -39, 46, 1039, 980, -13160, -130690
69707, 8, 69, 1001, 700, -11900, -134260
69727, 0, 95, 1025, 1120, -8680, -91070
69747, -23, 76, 1028, 1680, -7140, -75250
69767, 30, 72, 1003, 2030, -5320, -60690
69787, -96, 110, 1001, 1820, -4410, -59010
69807, -47, 80, 1030, 770, -3640, -61180
69827, -1, 47, 1019, 280, 70, -43960
69847, 36, 98, 1032, 1050, -1190, -43400
69867, 68, 54, 1010, -1540, 2590, -74270
69887, -7, 70, 1023, -2730, 5460, -85610
69907, -29, 62, 1025, -5390, 16030, -78680
69927, -10, 9, 1034, -6370, 21980, -73360
69947, -13, 59, 1014, -4550, 19250, -55020
69967, -20, 33, 1018, 2100, -840, -49490
69987, -30, 108, 1018, 5670, -10710, -47810
70007, -9, 99, 1019, 7560, -17150, -55860
70027, 56, 44, 1012, 10920, -28280, -50890
70047, -44, 94, 1027, 12600, -34160, -45290
70067, 59, 61, 1019, 4970, -14560, -62020
70087, -20, 98, 1014, -210, 2100, -56700
70107, -8, 67, 1023, -2380, 10290, -43890
70127, -8, 69, 1019, -4970, 20510, -15680
70147, -21, 112, 1024, -3080, 15400, -8260
70167, 4, 64, 1027, -3360, 16940, -11410
70187, 9, 72, 1011, -840, 9590, -27930
70207, -54, 48, 1026, -3850, 18900, -28350
70227, -64, 96, 1029, -8610, 33670, -22330
70247, -86, 46, 1022, -4270, 22260, -31010
70267, -48, 52, 1024, 2100, 3500, -34790
70287, -61, 39, 1023, 6720, -12040, -11130
70307, 11, 46, 1017, 9030, -18900, -6440
70327, -57, 51, 1025, 10640, -23450, 2380
70347, -33, 51, 1022, 7140, -13650, 11130
70367, 1, 72, 1016, 10780, -24080, 12180
70387, 10, 77, 1015, 13230, -32130, 6510
70407, 38, 83, 1012, 11620, -27790, 1960
70427, 12, 76, 1018, 10150, -23870, 1540
70447, 5, 73, 1021, 4970, -8120, 1750
70467, 23, 76, 1016, 2520, -700, 1960
70487, 18, 79, 1019, 3570, -3780, 6090
70507, 22, 78, 1020, 4270, -5950, 11690
70527, -7, 65, 1021, 2240, 840, 10500
70547, 8, 72, 1020, 3570, -2870, 14280
70567, 18, 78, 1020, 2450, -210, 8470
70587, 18, 78, 1019, 2310, 140, 4200
70607, 17, 76, 1020, 2380, -140, 1820
70627, 17, 76, 1018, 2380, -140, 1680
70647, 16, 76, 1022, 2380, -350, 1680
70667, 18, 77, 1019, 2450, -280, 1610
70687, 20, 76, 1020, 2520, -140, 1750
70707, 18, 75, 1020, 2590, -70, 1820
70727, 18, 78, 1019, 2590, -350, 1820
70747, 17, 76, 1019, 2520, -420, 1750
70767, 17, 76, 1021, 2590, -280, 1890
70787, 17, 78, 1020, 2800, -210, 2030
70807, 15, 76, 1019, 2520, -140, 1960
70827, 16, 78, 1018, 2380, -70, 1750
70847, 17, 78, 1020, 2380, -140, 1750
70867, 20, 77, 1020, 2450, -210, 1750
70887, 21, 78, 1015, 2450, -140, 1680
70907, 19, 77, 1017, 2450, -140, 1750
70927, 23, 79, 1019, 2380, -70, 1610
70947, 18, 73, 1022, 2380, -210, 1610
70967, 22, 77, 1021, 2240, -420, 1470
70987, 19, 73, 1023, 2450, -280, 1610
71007, 48, 81, 1014, 2240, -560, 910
71027, -51, 140, 1023, 1540, -980, -4550
71047, 50, 146, 1010, 2380, -630, -2590
71067, 13, 69, 1034, 2240, 70, 1540
71087, 8, 76, 1030, 2450, -210, 1750
71107, 18, 80, 1018, 2380, -280, 1820
71127, 17, 76, 1021, 2450, -210, 1750
71147, 4, 72, 1040, 2310, -420, 1750
71167, 4, 74, 1030, 2310, -140, 1820
71187, 16, 75, 1024, 2380, 70, 1890
71207, 19, 77, 1019, 2450, -70, 1890
71227, 20, 77, 1019, 2450, -210, 1820
71247, 21, 76, 1018, 2520, -280, 1820
71267, 19, 76, 1021, 2450, -420, 1890
71287, 17, 76, 1021, 2380, -280, 1890
71307, 17, 75, 1018, 2380, -140, 1820
71327, 16, 78, 1020, 2380, -210, 1750
71347, 16, 76, 1021, 2380, 0, 1750
71367, 16, 76, 1021, 2450, 0, 1750
71387, 20, 76, 1016, 2520, -70, 1820
71407, 20, 77, 1023, 2520, -210, 1890
71427, 14, 75, 1024, 2450, -140, 1820
71447, 25, 75, 1016, 2310, 0, 1680
71467, 14, 77, 1018, 2450, 0, 1820
71487, 17, 65, 1047, 2450, -70, 1820
71507, -117, 232, 1024, 2520, -70, 1610
71527, -15, -93, 1146, -9170, 40600, -15750
71547, 18, 79, 1044, -10990, 48160, -33180
71567, -13, 69, 1024, -6580, 28350, -20930
71587, -21, 62, 1025, 3080, -2240, 980
71607, -54, 66, 1010, 980, 4340, 6160
71627, -31, 62, 1020, -700, 11270, 17640
71647, -39, 52, 1016, -140, 9450, 26810
71667, -8, 69, 1019, 3920, -3780, 11200
71687, -22, 59, 1023, 4200, -4200, 2100
71707, -9, 28, 1024, 1890, 2590, 5390
71727, -20, 32, 1019, 1050, 4900, 15890
71747, -35, 61, 1022, 1190, 3780, 17290
71767, -28, 92, 1015, 630, 3920, 14210
71787, -34, -8, 1119, 2170, -1190, 7560
71807, -8, 40, 1046, 9870, -24430, -10500
71827, -2, 75, 1024, 33530, -96880, -29330
71847, 16, 83, 1019, 10990, -29610, -5320
71867, 8, 123, 1019, 2380, -630, 770
71887, 47, 78, 1015, 2100, -980, -7700
71907, 14, 96, 1024, 1820, -2800, -29960
71927, 31, 86, 1021, 1820, -1400, -10430
71947, -35, 50, 1017, 1960, -560, -1820
71967, 13, 79, 1021, 2170, -630, -1960
71987, 38, 70, 1022, 2240, -630, -5880
72007, 44, 62, 1020, 1890, -490, -5250
72027, 20, 80, 1018, 2100, -420, -1050
72047, 18, 76, 1019, 2310, -210, 1820
72067, 19, 75, 1022, 2310, -70, 1890
72087, 16, 78, 1020, 2310, 0, 1750
72107, 16, 78, 1021, 2310, -70, 1680
72127, 18, 79, 1018, 2380, -140, 1750
72147, 15, 74, 1019, 2520, -210, 1890
72167, 48, 90, 1018, 2520, -420, 1680
72187, 21, 77, 1019, 1960, -560, -6090
72207, 37, 99, 989, 2100, -210, 420
72227, 18, 76, 1020, 1680, 0, 1330
72247, 14, 76, 1023, 1190, -140, 560
72267, 19, 78, 1020, 2380, -280, 1750
72287, 18, 77, 1021, 2520, -280, 1890
72307, 16, 78, 1020, 2520, -490, 2030
72327, 18, 77, 1022, 2450, -490, 2030
72347, 22, 77, 1016, 2520, -490, 2240
72367, 19, 77, 1021, 2450, -280, 2100
72387, 11, 79, 1022, 2380, 0, 1960
72407, 107, 26, 1030, 2520, -420, 1960
72427, 60, 55, 1025, 2240, -420, -3360
72447, 20, 78, 1019, 2240, -350, 910
72467, 16, 79, 1019, 2520, -350, 4410
72487, 18, 78, 1024, 2310, -140, 1820
72507, 19, 76, 1018, 2310, 0, 2100
72527, 36, 58, 1027, 1890, 700, 6230
72547, 37, 53, 1024, 1890, 980, 10990
72567, 25, 82, 1006, 2520, -350, 4550
72587, 35, -4, 1006, 2170, -280, 1190
72607, 19, 76, 1024, 1120, -280, 420
72627, 17, 72, 1019, 2170, -700, 1680
72647, -7, 33, 1018, 1820, -980, -910
72667, 9, 94, 1024, 1190, -1260, -8680
72687, 11, 91, 1023, 1540, -1470, -14350
72707, 37, 82, 1021, 1820, -770, -9380
72727, 31, 78, 1016, 2170, 0, -2730
72747, 15, 80, 1025, 2380, 0, 1470
72767, 16, 76, 1023, 2170, 280, 1470
72787, 16, 76, 1022, 2100, -70, 1540
72807, 22, 75, 1020, 2450, -280, 2240
72827, 24, 72, 1019, 2450, 0, 2870
72847, 20, 73, 1020, 2170, 420, 2660
72867, 21, 72, 1020, 2240, 350, 1750
72887, 21, 79, 1016, 2240, 140, 1400
72907, 19, 75, 1021, 2450, -210, 1540
72927, 19, 76, 1020, 2450, -280, 1680
72947, 17, 77, 1019, 2310, 0, 1400
72967, 19, 73, 1023, 2170, 350, 1260
72987, 14, 73, 1021, 1960, 280, 1050
73007, 17, 73, 1023, 1960, -140, 1470
73027, 19, 74, 1020, 2380, -490, 1890
73047, 21, 75, 1021, 2450, -280, 1960
73067, 17, 75, 1021, 2450, -70, 1890
73087, 20, 74, 1019, 2450, -140, 1890
73107, 20, 74, 1022, 2450, -140, 1890
73127, 20, 75, 1020, 2450, 70, 1960
73147, 20, 73, 1021, 2450, 0, 1890
73167, 19, 75, 1019, 2450, -210, 1960
73187, 17, 75, 1019, 2450, -280, 1960
73207, 17, 75, 1020, 2450, -140, 1960
73227, 16, 75, 1022, 2310, 140, 1890
73247, 15, 75, 1018, 2310, 140, 1890
73267, 18, 75, 1020, 2450, -140, 1820
73287, 22, 74, 1017, 2590, -560, 1890
73307, 17, 73, 1021, 2520, -280, 1890
73327, 20, 74, 1021, 2450, -210, 1890
73347, 19, 74, 1019, 2450, -210, 1890
73367, 18, 74, 1020, 2380, 0, 1820
73387, 19, 74, 1021, 2380, 0, 1750
73407, 17, 74, 1021, 2380, -140, 1680
73427, 13, 73, 1023, 2380, -140, 1680
73447, 17, 72, 1021, 2240, 0, 1680
73467, 17, 75, 1019, 2310, 0, 1750
73487, 17, 74, 1021, 2380, 70, 1820
73507, 18, 72, 1018, 2310, 210, 1680
73527, 4, 71, 1030, 2240, 210, 1190
73547, 16, 80, 1022, 980, -1260, -7140
73567, 13, 76, 1022, 1470, -1330, -11060
73587, 18, 72, 1021, 2100, -700, -5460
73607, 21, 71, 1017, 2380, -420, 1470
73627, -5, 174, 1008, 2380, -490, 1400
73647, 12, 73, 1016, 1680, -3500, -43330
73667, 5, 80, 1019, 1260, -4760, -57330
73687, -24, 104, 1020, 1680, -4340, -52570
73707, -8, 90, 1021, 1610, -4410, -55580
73727, 24, 58, 1023, 1750, -4410, -54180
73747, 35, 72, 1022, 1750, -4060, -49700
73767, -10, 60, 1018, 1750, -4130, -52850
73787, -52, 7, 1030, 1400, -6580, -83650
73807, -14, 115, 1017, 910, -8330, -105770
73827, 53, 105, 1016, 770, -8050, -102760
73847, 15, 96, 1016, 1260, -6300, -73220
73867, 57, 77, 1018, 1750, -5110, -60200
73887, 23, 68, 1017, 1050, -4970, -74900
73907, 6, 76, 1017, 490, -6720, -95340
73927, -16, 106, 1005, -350, -7770, -128170
73947, 13, 88, 1014, 1540, -11970, -117530
73967, -26, 111, 1015, 1890, -9870, -93310
73987, 4, 72, 1013, 630, -4760, -82810
74007, -30, 64, 1009, -630, 70, -82600
74027, 4, 67, 1030, -770, -980, -96880
74047, 5, 59, 1038, -280, -2450, -105490
74067, 63, 91, 1014, 1400, -8190, -107380
74087, 22, 58, 1023, 4410, -16310, -94290
74107, 17, 56, 1024, -630, 1120, -76230
74127, 43, 72, 1034, -4760, 13930, -85330
74147, -58, 104, 1019, -3360, 9730, -93870
74167, 3, 108, 1016, 4410, -12460, -101920
74187, -1, 50, 1019, 7770, -23100, -103740
74207, -38, 101, 1003, 6160, -18200, -88410
74227, 34, 74, 1019, 5950, -17220, -73640
74247, 6, 61, 1031, 4970, -14350, -70420
74267, 7, 34, 1034, 2730, -7420, -76090
74287, 9, 104, 1021, 2730, -9590, -79940
74307, 51, 37, 1022, 3710, -12880, -73360
74327, 15, 66, 1026, 1400, -7700, -78610
74347, 6, 107, 1027, 700, -5320, -82810
74367, -73, 98, 1021, 70, -4760, -101080
74387, -49, 32, 1035, -420, -5810, -123900
74407, 21, 99, 1040, 1190, -10990, -123690
74427, -34, 97, 1009, 2870, -14630, -116060
74447, 29, 75, 1028, 1750, -13790, -118930
74467, 8, 94, 1011, 420, -9100, -108780
74487, -23, 41, 1032, 980, -8750, -96250
74507, 0, 120, 1023, 1400, -8050, -93660
74527, 48, 101, 1016, 2030, -7420, -82950
74547, 68, 83, 1021, 1820, -6160, -69720
74567, -46, 74, 1018, 1400, -4900, -56770
74587, -29, 112, 1019, 2100, -4270, -42840
74607, 28, 83, 1018, 2590, -3640, -37450
74627, 35, 67, 1020, 2870, -3080, -33530
74647, 31, 73, 1020, 2380, -2590, -27720
74667, 20, 74, 1020, 1680, -3150, -27370
74687, 26, 64, 1021, 1890, -2940, -25060
74707, 8, 70, 1021, 2030, -1890, -16030
74727, 50, 59, 1017, 2030, -2100, -19390
74747, 17, 51, 1020, 2030, -2590, -28280
74767, 5, 84, 1024, 1820, -2800, -33390
74787, 14, 60, 1021, 2170, -2520, -22820
74807, 22, 69, 1017, 2100, -1610, -16870
74827, 29, 81, 1022, 2030, -1120, -13160
74847, 19, 77, 1019, 2310, -770, -5390
74867, 15, 74, 1020, 2450, -280, 280
74887, 15, 74, 1020, 2380, 0, 1610
74907, 13, 78, 1019, 2380, 0, 1470
74927, 7, 75, 1021, 2240, -350, 1190
74947, 15, 73, 1020, 2380, -210, 700
74967, 52, 119, 1023, 2520, -1050, -7210
74987, -11, 76, 1020, 1680, -4060, -45500
75007, 3, 75, 1023, 1750, -2030, -20720
75027, 16, 75, 1019, 2240, -1190, -9100
75047, 15, 77, 1020, 2450, -700, -560
75067, 13, 75, 1022, 2380, -280, 1890
75087, 16, 74, 1021, 2450, -280, 1960
75107, 10, 74, 1024, 2450, 140, 1610
75127, 14, 74, 1019, 2310, 70, 1680
75147, 14, 75, 1020, 2240, -140, 1890
75167, 15, 74, 1021, 2310, -70, 1960
75187, 17, 75, 1019, 2380, -140, 2030
75207, 15, 74, 1020, 2310, 0, 1960
75227, 16, 74, 1019, 2240, 0, 1820
75247, 14, 75, 1019, 2310, 0, 1750
75267, 16, 76, 1018, 2450, -70, 1820
75287, 14, 76, 1017, 2520, -70, 1750
75307, 14, 74, 1020, 2450, -70, 1820
75327, 15, 76, 1019, 2310, -70, 1890
75347, 15, 76, 1019, 2240, -70, 2030
75367, 14, 76, 1018, 2100, -70, 2240
75387, 15, 76, 1021, 2170, 0, 2240
75407, 14, 74, 1019, 2380, 0, 1960
75427, 12, 73, 1018, 2450, 140, 1890
75447, 14, 73, 1020, 2380, 210, 1960
75467, 13, 72, 1018, 2310, 140, 2030
75487, 13, 73, 1019, 2240, 70, 2240
75507, 17, 76, 1018, 2100, 70, 2310
75527, 17, 76, 1020, 1960, 140, 2030
75547, 11, 72, 1018, 1540, 1120, 1890
75567, 14, 73, 1017, 770, 1750, 2030
75587, 11, 75, 1019, 1400, 2310, 1750
75607, 13, 74, 1017, 980, 3920, 1750
75627, 51, 50, 1012, 420, 5180, 1890
75647, -8, 66, 1024, -140, 6440, 2380
75667, -4, 68, 1017, 0, 5110, 4760
75687, -9, 65, 1021, 210, 5950, 2030
75707, 6, 69, 1020, 770, 4270, 1750
75727, 52, 86, 1005, 1960, 700, 1820
75747, -3, 48, 1017, 1540, 1890, 1820
75767, -8, 65, 1020, -1610, 10780, 1680
75787, -10, 65, 1020, -1400, 10010, 1750
75807, -14, 64, 1017, -1470, 10710, 1610
75827, -16, 63, 1020, -1470, 10640, 1610
75847, -28, 58, 1021, -1400, 10430, 1680
75867, -16, 62, 1016, -2240, 12880, 1610
75887, -53, 48, 1023, -1820, 12180, 1400
75907, -72, 42, 1026, -4200, 19390, 1190
75927, -51, 48, 1023, -3990, 18480, 1190
75947, -42, 54, 1019, 1680, 2030, 1470
75967, -38, 55, 1017, 4410, -5600, 1750
75987, -30, 58, 1018, 5040, -7490, 1750
76007, -31, 60, 1018, 5110, -7770, 1750
76027, -35, 58, 1021, 5040, -7700, 1820
76047, -23, 60, 1021, 5600, -9450, 1890
76067, -4, 65, 1017, 7350, -14420, 2030
76087, -12, 63, 1019, 8680, -18550, 2170
76107, -4, 61, 1021, 7000, -13650, 2170
76127, 5, 69, 1019, 6300, -11620, 2170
76147, 13, 70, 1021, 6860, -13720, 2380
76167, 16, 75, 1017, 5880, -10920, 7840
76187, 23, 82, 1018, 7280, -14490, 12390
76207, -25, 55, 1021, 4480, -5600, 14840
76227, 12, 74, 1019, 2380, 140, 9730
76247, 15, 72, 1017, 2380, -280, 2240
76267, 12, 72, 1019, 2380, -210, 1890
76287, 16, 73, 1020, 2380, -210, 1890
76307, 14, 72, 1019, 2450, -420, 1820
76327, 16, 71, 1020, 2520, -280, 1820
76347, 13, 68, 1017, 2520, -70, 1820
76367, 14, 68, 1020, 2590, -140, 1820
76387, 14, 70, 1018, 2590, -280, 1890
76407, 16, 73, 1018, 2660, -280, 2030
76427, 16, 74, 1020, 2660, -210, 2030
76447, -66, 25, 1011, 2800, -280, 3150
76467, -24, 59, 1019, 3570, 1050, 22400
76487, 15, 76, 1017, 2870, 420, 8330
76507, -6, 50, 1043, 2800, -70, 2030
76527, -24, 53, 1025, 4200, 1400, 19740
76547, 61, 104, 1018, 5110, 2590, 41930
76567, 0, 59, 1012, 5390, 2380, 39550
76587, -147, 151, 1072, 5670, 2520, 38710
76607, 13, 72, 1020, 2940, 1750, 11830
76627, 14, 73, 1016, 2450, 70, 1680
76647, 21, 81, 1013, 2380, 140, 1750
76667, 13, 75, 1023, 2520, 70, 1750
76687, 16, 78, 1017, 2520, -210, 1750
76707, 15, 79, 1017, 2450, -280, 1680
76727, 16, 81, 1017, 2520, -140, 1890
76747, 24, 77, 1013, 2660, 70, 2030
76767, 58, 1, 1001, 2660, 140, 2030
76787, 12, 80, 1020, 1260, 70, 4620
76807, 22, 78, 1021, 420, 420, 4900
76827, 33, 90, 1009, 560, 280, 3570
76847, -5, 112, 1015, 980, 0, 7140
76867, 0, 66, 1019, 840, 1190, 16660
76887, -49, 46, 1019, 1960, 1050, 17290
76907, 17, 74, 1017, 2170, 420, 11480
76927, 20, 75, 1016, 2240, -420, 3150
76947, 18, 77, 1020, 2100, -560, 2450
76967, 20, 77, 1017, 2380, -700, 1960
76987, 17, 76, 1018, 2310, -280, 1750
77007, 11, 75, 1019, 2310, 210, 1610
77027, 17, 73, 1016, 2310, 420, 1680
77047, 15, 73, 1017, 2450, -140, 1820
77067, 11, 68, 1020, 2310, -140, 1890
77087, 17, 70, 1018, 2240, 210, 1820
77107, 21, 70, 1011, 2240, 70, 1680
77127, 12, 74, 1021, 2240, 140, 1750
77147, 17, 73, 1020, 2380, 70, 1890
77167, 13, 75, 1018, 2380, -140, 1890
77187, 17, 75, 1018, 2310, -70, 1820
77207, 14, 73, 1018, 2310, 0, 1820
77227, 61, 71, 1017, 2380, -70, 1820
77247, 6, 68, 1023, 2450, -280, 1750
77267, 18, 72, 1019, 2380, -280, 1820
77287, 15, 71, 1016, 2450, -140, 1820
77307, 14, 70, 1019, 2380, 0, 1820
77327, 15, 69, 1017, 2450, -140, 1750
77347, -88, 22, 1015, 2380, -280, 1750
77367, 128, 116, 1015, 2170, -70, 210
77387, 15, 73, 1015, 1890, -770, -11690
77407, 16, 71, 1018, 2450, -420, -70
77427, 11, 79, 1019, 2520, -350, 1750
77447, -29, 58, 1022, 2520, -350, 1820
77467, -1, 62, 1021, 2450, -700, -3990
77487, 52, 90, 1019, 1890, -1750, -19600
77507, 34, 78, 1019, 1960, -1890, -21700
77527, 10, 72, 1021, 2240, -1190, -8890
77547, -14, 54, 1019, 2380, -490, 560
77567, 22, 73, 1015, 2310, -2520, 1400
77587, 16, 73, 1020, 2310, -2170, -630
77607, 3, 69, 1021, 2310, -1610, 1680
77627, 8, 66, 1010, 2310, -2240, 2450
77647, 26, 80, 1024, 2310, -1330, 1890
77667, 31, 79, 1019, 2660, 2030, -630
77687, 19, 71, 1014, 2450, 910, 1400
77707, 14, 72, 1022, 2590, 3780, 2100
77727, 15, 70, 1017, 2380, 2590, 1540
77747, 27, 73, 1015, 2380, 70, 1750
77767, 10, 72, 1019, 2100, 840, 1750
77787, 10, 70, 1018, 700, 5180, 1470
77807, 1, 68, 1022, 910, 4410, 1400
77827, 12, 71, 1017, 1680, 2030, 1680
77847, 12, 80, 1027, 2100, 280, 1470
77867, 9, 73, 1018, 1470, 1190, -630
77887, 69, 88, 1001, 2940, -3010, -910
77907, 15, 73, 1018, 4970, -8400, 2030
77927, 13, 72, 1021, 3010, -2380, 1820
77947, 8, 67, 1018, 2240, -70, 1750
77967, 47, 58, 1017, 2310, -140, 1750
77987, -21, 56, 1014, 2030, -910, -8960
78007, 28, 74, 1013, 1610, -2100, -25340
78027, 17, 85, 1018, 980, -140, -31780
78047, 72, 92, 1014, 2310, -2030, -18130
78067, 18, 72, 1018, 2100, 70, -5250
78087, -11, 64, 1019, 1750, 1890, 1330
78107, 2, 68, 1021, 560, 4760, -1680
78127, 4, 69, 1021, 1610, 2030, 1190
78147, 6, 69, 1019, 2940, -1680, 1820
78167, 12, 71, 1019, 2800, -1190, 1820
78187, 10, 69, 1019, 2170, 630, 1750
78207, 9, 69, 1019, 1960, 1400, 1680
78227, 7, 69, 1019, 1890, 1680, 1680
78247, 7, 68, 1020, 2450, 70, 1750
78267, 6, 61, 1019, 2730, -630, 1890
78287, 16, 70, 1017, 3150, -1260, 1890
78307, 6, 68, 1019, 3430, -1750, 1890
78327, 10, 71, 1020, 3080, -910, 1820
78347, 17, 75, 1012, 2730, 210, 1680
78367, 24, 76, 1014, 2800, 420, 1540
78387, 2, 68, 1020, 1470, 2940, 1330
78407, -16, 107, 1019, 2380, 350, 1470
78427, 10, 72, 1018, 3080, -700, 140
78447, 8, 70, 1020, 3360, -1820, 910
78467, -38, 61, 1029, 2660, -420, 1540
78487, 18, 74, 1018, 3500, -2940, 1610
78507, 15, 73, 1019, 3920, -4340, 1750
78527, 0, 66, 1024, 2660, -840, 1400
78547, 24, 76, 1019, 1540, 1470, -7210
78567, 1, 68, 1020, 700, 4130, -4060
78587, 6, 19, 1041, -700, 8470, -8610
78607, -10, 93, 1022, 840, 1540, -22260
78627, 5, 80, 1009, 2100, -980, -13160
78647, 1, 70, 1022, 3010, -2520, -5530
78667, 1, 67, 1019, 1610, 2170, 1120
78687, -2, 69, 1019, 2030, 910, 1610
78707, 3, 69, 1020, 2870, -1680, 1680
78727, 6, 74, 1021, 4550, -6720, 1820
78747, 35, 82, 1018, 5390, -9310, 1120
78767, 18, 75, 1018, 5040, -7910, -1540
78787, 16, 76, 1016, 4550, -4970, 980
78807, 1, 76, 1008, 3500, -1050, 350
78827, 10, 65, 1022, 3360, -4130, -33390
78847, -42, 108, 1019, 1610, -4410, -43400
78867, 33, 110, 1023, 1260, -4970, -56000
78887, 29, 85, 1017, 1260, -5530, -62370
78907, 46, 95, 1016, 1610, -3360, -39130
78927, 7, 72, 1019, 1680, -2100, -22890
78947, 11, 43, 1024, 1540, -2100, -21280
78967, -15, 42, 1021, 1120, -4690, -46340
78987, 22, 101, 1026, 350, -5950, -72660
79007, -31, 62, 1028, -70, -8120, -98490
79027, -3, 146, 1034, -700, -10360, -123200
79047, -84, 21, 1033, -1260, -11060, -134330
79067, -18, 99, 1019, -1120, -12880, -158340
79087, 11, 57, 1027, -1610, -15260, -194740
79107, 40, 127, 1015, -1960, -17430, -223440
79127, 14, 61, 1065, -1680, -18690, -231770
79147, 174, 209, 1058, -1190, -17710, -207550
79167, -101, 29, 1027, -1050, -16450, -178990
79187, -68, -27, 924, -490, -12740, -143850
79207, 156, 186, 1025, -1960, -24500, -160370
79227, 95, 73, 1030, -3080, -25340, -166810
79247, 6, 15, 1019, -1960, -19390, -118090
79267, 492, 516, 701, -2030, -17850, -104580
79287, 7, 183, 999, 910, 9450, -107450
79307, -6, 0, 1017, 3430, 17710, -57400
79327, 17, 25, 1106, 1960, -2450, -31080
79347, 61, -98, 951, 1820, -5600, -46410
79367, 198, 204, 809, -210, -19530, -64190
79387, -42, -41, 1138, -2380, -28910, -76650
79407, 36, 242, 867, 210, -6300, -61390
79427, -88, 188, 1055, 770, 700, -71680
79447, -45, 198, 1077, 3710, 19250, -57960
79467, 10, 98, 1062, 1330, -2800, -49700
79487, 42, 11, 981, 140, -15540, -35140
79507, 41, -18, 1074, -1120, -25830, -24640
79527, -17, 64, 1110, -840, -21140, -34090
79547, 31, 65, 1043, -1750, -27370, -32620
79567, 26, -16, 1005, -1470, -29400, -12810
79587, 99, -78, 1089, -560, -27510, -5390
79607, 205, 64, 991, -3290, -30940, -37380
79627, -16, -23, 953, -3220, -5670, -65240
79647, -3, 47, 1095, 1750, 31710, -70350
79667, -4, 116, 986, 6300, 56420, -80010
79687, 58, 107, 1025, 5110, 39620, -87640
79707, 41, 90, 1028, 1610, 4900, -77070
79727, 64, 78, 1023, 2170, 5390, -61460
79747, 37, 81, 1022, 1750, -2800, -51660
79767, -38, -26, 1035, 1820, -4060, -43750
79787, 12, 74, 1023, 1820, -3150, -37240
79807, 56, 58, 1019, 1750, -3430, -38080
79827, 5, 52, 1023, 2100, -2660, -27160
79847, 62, 87, 1016, 2240, -1890, -21840
79867, 28, 75, 1018, 2310, -910, -7350
79887, 27, 159, 1042, 2310, -1260, -10710
79907, 13, 71, 1022, 2100, -3500, -36540
79927, 9, 74, 1040, 2520, -350, -4200
79947, 42, 226, 1678, 4620, -4130, 31290
79967, -133, -161, 310, -7000, -140420, 105280
79987, -60, -56, 740, -9590, -140420, 68320
80007, 81, 117, 1022, 700, -4620, 7490
80027, 152, 81, 985, -2800, -27930, -15400
80047, 123, 18, 1048, -1190, -46830, 6650
80067, 172, -47, 874, -1050, -33040, 1820
80087, 62, -207, 1322, -980, 700, -20720
80107, 60, 6, 1025, -7490, 7350, -69580
80127, 112, 158, 984, -10850, -560, -89390
80147, 132, 57, 1005, -6860, 10080, -67410
80167, 167, 25, 963, -4690, 17500, -59920
80187, 96, 53, 1022, 0, 36470, -60690
80207, -2, 42, 1037, 3010, 44240, -61530
80227, 25, 75, 981, 2940, 31220, -56910
80247, 66, 35, 961, 3150, 30450, -55510
80267, 64, 38, 1013, 4690, 39970, -51240
80287, 77, 94, 1031, 6160, 40600, -49140
80307, -57, 81, 1014, 6860, 41300, -40250
80327, 11, 64, 1021, 6860, 42560, -42280
80347, 38, -15, 1035, 1330, 9240, -37870
80367, 64, 17, 1030, -420, -980, -35420
80387, -97, 4, 1014, -2520, 5110, -27090
80407, -33, 47, 1042, -7140, 19320, -21630
80427, -81, 75, 1008, -15050, 52640, -910
80447, -55, 55, 1014, -16380, 59850, -7770
80467, -34, 21, 1040, -14000, 60760, -8890
80487, -95, 23, 1032, -9240, 47460, 630
80507, -60, 42, 1021, -2380, 13300, 17220
80527, -52, 74, 1021, 2660, -6370, 12950
80547, 126, 102, 1028, 3500, -9380, 11760
80567, 1, 30, 1022, 2030, -3290, 11340
80587, -85, 13, 1023, -560, 2030, 23730
80607, -139, 31, 1015, -1610, 6720, 28280
80627, -81, 35, 1016, 1400, -2660, 21980
80647, -90, 32, 1020, 3290, -7630, 13720
80667, -72, 45, 1024, 6510, -20090, 10850
80687, -25, 74, 1021, 9170, -26810, 6440
80707, -45, 53, 1025, 7840, -19740, 3360
80727, -41, 54, 1020, 2240, -1470, 1960
80747, -58, 47, 1022, 1820, 1960, 1680
80767, -32, 62, 1011, 3360, -3220, 1890
80787, -31, 55, 1021, 7560, -16730, 9380
80807, -72, 61, 1025, 7140, -16240, 22820
80827, -33, 54, 1024, 6090, -10150, 29890
80847, 139, 128, 1007, 8820, -16030, 30590
80867, 29, 68, 1015, 11200, -22470, 26600
80887, 109, 112, 998, 14420, -32480, 25760
80907, -34, 56, 1021, 15120, -35350, 22820
80927, -110, 0, 1042, 7280, -12670, 19600
80947, -6, 50, 1020, 2800, 1050, 20930
80967, 3, 75, 1022, 2800, 630, 13580
80987, -17, 60, 1030, 2660, -210, 3990
81007, 27, 83, 1023, 2450, -70, 1610
81027, -4, 82, 1027, 2100, 140, 700
81047, 30, 83, 1018, 2100, -630, -5250
81067, 44, 78, 1021, 1890, -840, -11970
81087, 49, 84, 1020, 2030, -910, -11270
81107, 15, 75, 1024, 2030, -490, -5740
81127, 19, 74, 1021, 2170, 0, 490
81147, 101, 218, 993, 2380, -210, 1960
81167, -2, -26, 1027, 2450, 140, 5530
81187, 21, 52, 1018, 2240, 1750, 11550
81207, 7, 43, 1025, 2100, 980, 8400
81227, 31, 124, 1014, 2240, 770, 5250
81247, -2, 71, 1021, 2730, -1400, 5810
81267, 40, 116, 1011, 2380, -350, 3570
81287, 11, 71, 1022, 2310, -420, -1820
81307, 13, 74, 1024, 2240, -630, -2800
81327, 17, 74, 1017, 2310, -210, 1330
81347, 15, 67, 1025, 2380, -140, 1680
81367, 15, 70, 1022, 2240, 0, 1680
81387, -127, 93, 1056, 2100, 70, 1820
81407, 22, 77, 1021, 2030, -70, 210
81427, 13, 71, 1020, 2170, -420, -2310
81447, 16, 70, 1019, 2100, -70, 1050
81467, 18, 71, 1017, 2380, -280, 1750
81487, 8, 68, 1022, 2380, -140, 1820
81507, 22, 76, 1020, 2100, -140, 1540
81527, 22, 83, 1026, 1750, -420, -2520
81547, 16, 72, 1020, 1890, -630, -4970
81567, 13, 71, 1019, 2030, 0, -70
81587, 15, 71, 1022, 2380, -70, 1610
81607, 16, 71, 1020, 2310, 0, 1610
81627, 49, 90, 1019, 2380, -140, 1820
81647, 16, 69, 1021, 2240, -280, -3780
81667, 18, 70, 1015, 2310, -280, -910
81687, 19, 71, 1024, 2520, -280, 1680
81707, 15, 72, 1020, 2450, 280, 1470
81727, 15, 70, 1023, 2240, 0, 1330
81747, 15, 70, 1020, 2450, -420, 1190
81767, 16, 71, 1022, 2520, -140, 1470
81787, 16, 70, 1021, 2450, 70, 1890
81807, 17, 71, 1022, 2590, 70, 1960
81827, 17, 73, 1021, 2660, 140, 1960
81847, 24, 93, 990, 2870, -280, 1960
81867, -14, 59, 1042, 3500, -490, 2170
81887, 26, 73, 1016, 4550, 210, 6860
81907, 27, 74, 1021, 4830, 1260, 17430
81927, 16, 82, 1010, 4340, 2240, 22120
81947, 16, 73, 1021, 2940, 560, 5740
81967, 95, 13, 1015, 2590, 140, 420
81987, 15, 74, 1017, 2730, -770, -5320
82007, 13, 73, 1019, 2450, -560, -140
82027, 35, 95, 996, 2380, -140, 1470
82047, -75, 72, 1020, 1890, -840, -10710
82067, 17, 74, 1020, 1960, -1680, -16940
82087, 18, 73, 1022, 2380, -140, 980
82107, 17, 72, 1018, 2450, -210, 1750
82127, 18, 75, 1020, 2450, -140, 1680
82147, 17, 72, 1023, 2450, -210, 1820
82167, 19, 76, 1019, 2380, -70, 1960
82187, 14, 73, 1021, 2240, -280, 1890
82207, 16, 73, 1018, 2310, -350, 1890
82227, 16, 73, 1020, 2380, -280, 1960
82247, 16, 73, 1018, 2520, -350, 1890
82267, 11, 73, 1020, 2660, -350, 1610
82287, 18, 73, 1018, 2660, -280, 1680
82307, 15, 72, 1022, 2520, -210, 1750
82327, -60, 75, 1021, 2450, 0, 1260
82347, 36, 108, 969, 2730, -1050, -9520
82367, 42, 93, 1024, 3360, -980, -8120
82387, 19, 77, 1004, 4340, -1260, -5180
82407, -9, 86, 1033, 6650, -1260, -4690
82427, 28, 71, 1030, 8330, -700, -2170
82447, 30, 91, 1017, 12390, -280, 700
82467, 17, 88, 1042, 18480, -1190, -7560
82487, -18, 104, 1036, 24290, -1610, -12250
82507, 51, 140, 1021, 34370, -1050, -3640
82527, 14, 130, 1015, 44800, -770, 1120
82547, 19, 118, 1002, 51730, -560, 4060
82567, 14, 176, 1032, 59010, -490, 2240
82587, -25, 195, 1018, 67410, -910, -280
82607, 18, 268, 981, 78120, -560, 1540
82627, 10, 217, 981, 84560, -980, 0
82647, 8, 298, 959, 81690, -1050, -210
82667, 26, 324, 979, 72940, -210, 700
82687, 3, 309, 985, 69930, -840, -1190
82707, 33, 389, 976, 76370, -1610, -2590
82727, 8, 317, 975, 87710, -2100, -3780
82747, 31, 423, 971, 97090, -3220, -6230
82767, 45, 494, 884, 111580, -1890, -4130
82787, 43, 465, 899, 134470, 2590, 7350
82807, 49, 552, 835, 161630, 7420, 12320
82827, -10, 627, 815, 186900, 4900, 8820
82847, 85, 649, 776, 194810, -910, -1120
82867, 31, 669, 733, 197540, -2450, -5110
82887, -2, 741, 697, 198660, 3010, 2660
82907, 15, 806, 577, 187600, 9100, 7210
82927, 15, 776, 591, 184800, 5320, 3430
82947, 0, 922, 525, 171710, -11130, -8890
82967, 9, 902, 511, 140700, -14420, -10010
82987, 47, 899, 481, 96600, -7980, -3780
83007, 13, 892, 469, 55720, -5180, -3500
83027, -4, 909, 535, 50330, 280, 1190
83047, 50, 896, 467, 69090, 3780, 3080
83067, 5, 916, 395, 78330, -4410, -1750
83087, 63, 950, 449, 105840, -9590, -4760
83107, 7, 1047, 258, 156520, -11060, -5670
83127, 18, 950, 200, 154280, -630, -1470
83147, 93, 1024, 245, 123130, 5250, 1680
83167, -3, 1045, 92, 145740, 12250, 2240
83187, -13, 1044, 80, 164080, 11620, 2520
83207, 31, 1063, 101, 117670, 2870, 770
83227, 9, 1038, 40, 82880, -1470, 630
83247, 76, 999, 26, 53690, -3850, 2380
83267, 47, 1017, 44, 31220, -9100, 8330
83287, 20, 995, 41, 20370, -6440, 9590
83307, 35, 992, 28, 8610, -4550, 5040
83327, 57, 974, 20, -1750, -8960, -1540
83347, -6, 981, 37, -4900, -8190, -6650
83367, -11, 1032, 11, 2380, 3640, -9380
83387, -41, 1005, 67, 11130, 15820, -840
83407, 11, 997, 37, 9730, 23730, 630
83427, 41, 1025, -23, 5040, 20790, 910
83447, 5, 967, 100, 6510, 10430, 2100
83467, 11, 1009, 14, 6860, 4900, 2100
83487, 12, 1004, 25, 4550, 420, 1540
83507, 2, 1008, 29, 5880, -280, 1610
83527, 11, 999, 39, 6860, -140, 1540
83547, 21, 998, 16, 6230, -70, 1610
83567, 0, 1008, 27, 6580, -3360, 1470
83587, 12, 1004, 15, 4900, -2100, 1680
83607, 11, 1008, 7, 560, -560, 1750
83627, 12, 1012, 10, -2660, 1400, 1820
83647, 9, 1001, 27, -1120, 3780, 1890
83667, 8, 1005, 25, 3780, 350, 1680
83687, -15, 1006, 48, 7630, 0, 1750
83707, 14, 1004, 17, 6580, 1750, 1890
83727, 11, 1003, 15, 2660, 1890, 2030
83747, 20, 992, 31, -1750, 4410, 2030
83767, 15, 1007, 11, -1680, 7630, 2310
83787, 0, 1007, 34, 910, 11200, 2240
83807, 2, 1000, 41, 70, 11270, 2170
83827, 3, 1011, 40, -210, 8470, 2100
83847, 11, 992, 33, 2240, 4480, 1960
83867, 11, 1015, 16, 6300, 210, 1610
83887, 9, 999, 10, 10640, -490, 1470
83907, 12, 1009, 18, 8050, -210, 1470
83927, 4, 991, 36, 2800, 70, 1610
83947, 12, 1002, 29, -1820, 3010, 1820
83967, 10, 1000, 23, -1960, 4270, 1890
83987, 13, 1007, 25, 280, 2660, 1750
84007, 12, 1000, 22, 2520, 560, 1680
84027, 10, 1006, 20, 3290, -280, 1750
84047, 11, 1003, 23, 4620, -490, 1890
84067, 12, 1004, 14, 5250, -420, 1750
84087, 9, 1002, 19, 4060, -140, 1610
84107, 23, 991, 25, 1540, -70, 1680
84127, 11, 1000, 28, 1610, 1330, 1680
84147, 7, 1003, 26, 2240, 2660, 1540
84167, 8, 1001, 24, 2800, 840, 1680
84187, 12, 1000, 25, 4830, -350, 1680
84207, 15, 1005, 16, 6440, -420, 1680
84227, 9, 1005, 12, 7210, -350, 1680
84247, 10, 1002, 14, 5530, -210, 1610
84267, 10, 1004, 15, 3010, -210, 1680
84287, 9, 1004, 15, 2590, -210, 1750
84307, 8, 1005, 12, 2870, -210, 1820
84327, 6, 1008, 11, 2380, -210, 1820
84347, 6, 1006, 15, 2100, 700, 1680
84367, 4, 1003, 18, 1680, 1190, 1610
84387, 8, 1002, 21, 1610, 700, 1750
84407, 11, 1005, 12, 2800, 0, 1820
84427, 11, 1004, 16, 3640, -280, 1750
84447, 11, 1003, 18, 3500, -140, 1680
84467, -2, 1008, 15, 3780, 210, 1610
84487, 12, 1005, 10, 5110, -210, 1750
84507, 13, 1005, 12, 4620, -490, 1750
84527, 10, 1005, 10, 4340, -350, 1750
84547, 10, 1005, 11, 3850, -210, 1610
84567, 9, 1002, 12, 2100, -210, 1680
84587, 6, 1005, 11, 1680, -280, 1750
84607, 9, 1001, 16, 1400, -280, 1820
84627, 10, 1002, 18, 1260, -350, 1820
84647, 10, 1002, 13, 2100, -350, 1750
84667, -22, 1013, 37, 2240, -420, 1680
84687, 8, 1009, 7, 5110, -3500, 1680
84707, 15, 999, 18, 4620, -3780, 1610
84727, 19, 991, 4, 3570, -2240, 1680
84747, 0, 1010, 13, 5250, -3360, 1680
84767, 7, 1003, 11, 6860, -3570, 1680
84787, 3, 1006, 18, 2590, -490, 1750
84807, 8, 1001, 12, 3640, -1260, 1820
84827, 10, 1011, 7, 4830, -910, 1750
84847, 9, 1001, 3, 5180, -420, 1680
84867, 9, 1008, 6, 4200, -280, 1680
84887, 7, 1001, 5, 3150, -70, 1610
84907, 13, 1005, 8, 3990, 630, 1750
84927, 12, 999, 4, 4830, 350, 1750
84947, 10, 1002, 8, 4060, -140, 1680
84967, 9, 1003, 4, 2520, -140, 1820
84987, 9, 1002, 5, 4200, 630, 1820
85007, 10, 1006, -5, 5880, 70, 1680
85027, 0, 1010, -8, 6510, -140, 1610
85047, 10, 1001, 6, 4200, 1050, 1680
85067, 10, 1003, 1, 700, 1190, 1820
85087, 10, 1004, 0, 1400, 1890, 1750
85107, 11, 1002, 2, 1820, 1820, 1680
85127, 9, 1004, 10, 490, 1890, 1750
85147, 9, 1002, 8, -210, 2030, 1750
85167, 9, 1004, 10, 700, 1050, 1610
85187, 9, 1001, 3, 3150, 350, 1680
85207, 9, 1002, 0, 3920, -280, 1680
85227, 6, 1003, 10, 2240, -210, 1680
85247, 9, 1002, 7, -420, -140, 1750
85267, 10, 1001, 10, -1120, -70, 1750
85287, 8, 1001, 8, -770, -140, 1750
85307, 10, 1000, 13, 560, -210, 1750
85327, 11, 1001, 8, 1540, -140, 1750
85347, -13, 1008, 13, 1610, 0, 1750
85367, 9, 1006, 6, 770, 980, 1750
85387, 8, 1001, 16, -420, 1330, 1820
85407, 10, 1002, 15, -1750, 350, 1820
85427, 11, 1002, 15, 140, 0, 1750
85447, 5, 1005, 13, 3150, 560, 1750
85467, 9, 1005, 9, 3710, 280, 1820
85487, 9, 1001, 15, 2800, -350, 1820
85507, 8, 1002, 16, 1680, -280, 1750
85527, 7, 1001, 18, 1050, -210, 1820
85547, 6, 1002, 19, 1680, -210, 1750
85567, 8, 1005, 9, 2590, -210, 1680
85587, 26, 998, 4, 1820, -70, 1680
85607, 7, 994, 28, 2100, 2170, 1890
85627, 9, 1002, 21, 1680, 700, 1820
85647, 9, 1003, 19, 2590, -140, 1820
85667, 9, 1002, 15, 3290, -210, 1750
85687, 10, 1004, 14, 3220, -70, 1680
85707, -3, 1010, 11, 2240, 490, 1680
85727, 10, 1003, 14, 2310, 1820, 1820
85747, 39, 919, 31, 1960, 560, 1820
85767, 82, 1107, -21, 140, 3080, 2380
85787, 5, 839, 50, 6300, 1890, 2100
85807, -79, 1059, 44, 13160, -70, 1120
85827, 18, 958, 2, 6440, -1400, 1680
85847, -1, 1034, 33, -210, 0, 1820
85867, -10, 983, 44, -5950, 2170, 2100
85887, 23, 1008, -4, 2450, 2310, 1540
85907, 10, 1020, -11, 12320, -910, 1890
85927, 7, 1000, -9, 15400, -1260, 1750
85947, 15, 986, 32, 3080, -560, 1680
85967, 18, 1014, 20, -10360, 210, 1890
85987, 0, 993, 27, -4060, -490, 2170
86007, 12, 995, 25, 6650, -1120, 1680
86027, 21, 992, 7, 6930, -3220, 1330
86047, 13, 1000, 19, -140, -560, 1610
86067, -3, 999, 28, -6230, 140, 1890
86087, 9, 1011, 9, -2590, 210, 1540
86107, 15, 1010, 7, 5040, -350, 1470
86127, 5, 985, 23, 6720, -420, 1680
86147, 0, 1022, 8, 2520, 0, 1680
86167, 12, 1008, 3, -700, -70, 2030
86187, 9, 1009, 20, -840, -490, 2030
86207, 4, 1003, 10, 4690, -420, 1750
86227, 10, 1007, 8, 4410, -350, 1680
86247, 17, 997, 16, -560, -210, 1750
86267, 12, 997, 38, -6230, -210, 1960
86287, 3, 1005, 23, -4270, -280, 2030
86307, 12, 1004, 17, 2730, -420, 1750
86327, 14, 1003, 19, 3850, -490, 1750
86347, 7, 999, 28, 140, -350, 1890
86367, 1, 1008, 24, -2940, -210, 2030
86387, -28, 1021, 31, -2730, -210, 1750
86407, 9, 1003, 30, 1890, 140, 1750
86427, 7, 998, 30, 1680, -280, 1750
86447, 25, 991, 13, 2380, -140, 1610
86467, 5, 1010, 27, 1890, 70, 1610
86487, 5, 1005, 28, 3640, 0, 1680
86507, 13, 1000, 15, 3080, 0, 1680
86527, 9, 1003, 30, 2450, 210, 1610
86547, 10, 999, 25, 2660, -1190, 1540
86567, 6, 1005, 27, 2240, -1400, 1610
86587, 10, 1007, 25, 1960, -840, 1680
86607, 10, 1006, 23, 1260, 280, 1680
86627, 8, 1001, 31, 770, 140, 1260
86647, 4, 1000, 35, 350, 70, 840
86667, 8, 1003, 27, 140, -140, 840
86687, 4, 1002, 31, 350, -560, 910
86707, 5, 1010, 20, 1190, -1260, 1050
86727, 8, 1002, 29, 1960, -2240, 980
86747, 1, 992, 45, 770, -2170, 210
86767, 7, 1002, 36, -1610, -3150, -630
86787, 3, 1000, 40, -1190, -3990, 70
86807, 4, 1002, 35, -140, -2590, 630
86827, 5, 1003, 38, 980, -3010, -420
86847, 0, 1002, 36, 1960, -4200, -910
86867, 4, 998, 40, 2730, -4340, -490
86887, 0, 1004, 35, 2940, -4130, -1050
86907, 1, 1008, 29, 4620, -2520, -980
86927, 1, 1003, 32, 6020, -140, 980
86947, 5, 1001, 30, 5460, 1610, 2310
86967, 5, 1003, 31, 3080, 4200, 3710
86987, -3, 1009, 32, 2520, 6930, 4830
87007, 3, 1008, 28, 2450, 8400, 5600
87027, 0, 1006, 32, 2870, 8890, 5950
87047, 6, 996, 32, 3500, 7000, 4340
87067, 4, 1006, 36, 2380, 4340, 2870
87087, 3, 1001, 34, 1330, -70, 1890
87107, 5, 1007, 29, 1750, -1260, 1330
87127, 7, 1003, 31, 3360, -1470, 1470
87147, 6, 1001, 34, 3500, -2030, 1330
87167, 2, 1002, 31, 1890, -1960, 560
87187, 2, 1005, 32, 1610, -1820, 210
87207, 6, 1006, 28, 2450, -70, 1120
87227, 5, 1000, 34, 2940, 210, 1960
87247, 5, 1004, 34, 1960, -140, 1260
87267, 5, 1002, 34, 1470, -1540, 910
87287, 4, 1002, 35, 2450, -980, 1330
87307, 0, 1003, 31, 3360, -1050, 1050
87327, 0, 1001, 36, 3010, -1820, 630
87347, 0, 1003, 29, 3220, -2380, 1540
87367, 3, 1005, 29, 3150, -2660, 2800
87387, 14, 1002, 29, 3570, -2870, 3640
87407, 27, 993, 32, 5180, -1190, 5530
87427, 11, 1001, 29, 7770, 560, 5810
87447, 7, 1004, 32, 7770, 2240, 5460
87467, 7, 1006, 24, 6020, 4550, 4480
87487, 20, 999, 20, 3080, 3640, 2520
87507, 16, 998, 20, 2450, 4270, 2100
87527, -2, 1009, 34, 2450, 3710, 1890
87547, 14, 998, 20, 3290, 4410, 1960
87567, 7, 1004, 35, 2660, 6230, 1960
87587, 9, 1002, 27, 910, 7000, 1750
87607, 7, 1003, 26, 1890, 6650, 1540
87627, 18, 997, 29, 2590, 6650, 1610
87647, -5, 1012, 42, 2590, 9590, 1960
87667, 29, 1004, 14, 2800, 15820, 2170
87687, 14, 1002, 23, 3010, 20300, 2800
87707, 26, 1006, 42, 4690, 27580, 2380
87727, 24, 998, 20, 6020, 33460, 2590
87747, 23, 999, 15, 5460, 35280, 2800
87767, 11, 997, 26, 2870, 38080, 2800
87787, -24, 1015, 33, 4690, 39620, 2660
87807, 5, 994, 38, 5320, 33600, 2730
87827, 15, 993, 5, 3220, 34790, 3150
87847, 28, 999, 21, 2870, 42070, 2520
87867, 16, 989, 11, -350, 46900, 3080
87887, -50, 1018, 80, 1470, 51660, 2870
87907, 21, 1001, 30, 12040, 66220, 2730
87927, 12, 1019, 41, 7420, 44590, 2170
87947, -20, 1019, 57, 4480, 34720, 1820
87967, 33, 997, 4, 490, 22050, 1820
87987, 14, 999, 31, 490, 22750, 2240
88007, 4, 1003, 17, 2170, 31920, 2590
88027, 21, 1007, -2, 2940, 36750, 2590
88047, -3, 1013, 0, -2030, 36330, 2800
88067, -25, 1020, 62, -1190, 41160, 2870
88087, 30, 949, -69, 1680, 45850, 2520
88107, -47, 971, -26, 6510, 42770, 3150
88127, -65, 1038, 98, 21840, 44380, 2100
88147, -39, 1038, 60, 10850, 41650, 2520
88167, -23, 1012, 55, 8260, 45010, 2030
88187, -30, 1018, 81, -2800, 45220, 2100
88207, -17, 1008, 41, -210, 49910, 1890
88227, 17, 1015, 0, 5950, 55160, 2660
88247, 78, 1026, -84, 10150, 59920, 1610
88267, -10, 1023, 4, 5530, 59570, 2450
88287, 137, 964, -149, -11900, 63980, 3710
88307, -41, 881, -135, -22960, 65240, 3640
88327, 47, 935, 3, -10780, 82600, 4340
88347, -48, 1045, 123, 5810, 96950, 4340
88367, 61, 946, -130, 4550, 106680, 3990
88387, 34, 1112, 117, 1610, 113750, 5250
88407, -107, 671, -514, 4270, 107310, 4410
88427, 8, 882, -231, 7490, 114450, 4760
88447, -144, 775, -251, 20370, 131880, 4340
88467, -38, 1008, -89, 64190, 158480, 2030
88487, 0, 986, -110, 77140, 182630, -3500
88507, 61, 1036, -94, 65940, 191100, -7420
88527, 30, 1101, 34, 37520, 168210, -8610
88547, -33, 949, -88, -7700, 140420, -7210
88567, 112, 1017, 21, -46410, 128940, -3080
88587, -46, 983, 68, -55370, 130970, -3920
88607, 17, 1004, 22, -72660, 130270, -8400
88627, -19, 1014, 15, -48510, 115990, 8330
88647, 10, 1013, 40, -43820, 108220, 10850
88667, 111, 923, -67, -54740, 85050, -3080
88687, -269, 1145, 238, -63420, 75670, -10640
88707, -648, 1289, 444, -34440, 92750, 11410
88727, 193, 901, -17, -26810, 90650, 36470
88747, -8, 962, 125, -36750, 50120, 25550
88767, -23, 966, 146, -11690, 75600, 12320
88787, 53, 952, 86, 840, 53550, 9520
88807, -64, 1000, 168, 1890, 45920, 7280
88827, 32, 982, 100, 4340, 57400, 9450
88847, -5, 1020, 147, 8330, 51660, 8260
88867, 70, 993, 51, 18480, 56700, 8400
88887, -40, 1012, 159, 14560, 52010, 7910
88907, -45, 987, 126, 13650, 72170, 9800
88927, -7, 984, 132, 7070, 55510, 8680
88947, 97, 1000, 68, 8050, 28840, 4550
88967, 10, 1013, 132, 11970, 19950, 3430
88987, 24, 1002, 77, 19250, 34790, 4550
89007, 45, 1008, 87, 20720, 36820, 4200
89027, 5, 1004, 88, 17290, 28840, 4060
89047, 13, 1006, 71, 12530, 32340, 4340
89067, 31, 1003, 58, 12180, 23030, 3430
89087, 28, 1003, 47, 11620, 13230, 2520
89107, -13, 997, 85, 10500, 18550, 3080
89127, -8, 1002, 68, 11200, 11270, 2520
89147, -24, 998, 62, 12810, 1260, 1610
89167, -15, 1021, 71, 16660, -13090, 840
89187, -16, 1001, 47, 15260, -21420, 560
89207, 15, 1006, 46, 7140, -14700, 1190
89227, -1, 1001, 49, 4480, -11130, 1330
89247, 19, 1003, 52, 5880, -13930, 1050
89267, -97, 981, 18, 7280, -12950, 1120
89287, 15, 1006, 46, 10360, -6370, 1330
89307, 2, 997, 45, 10780, -4130, 1470
89327, 16, 996, 47, 12180, -8260, 1400
89347, 25, 1005, 34, 17920, -12810, 1120
89367, 9, 1006, 23, 20370, -9030, 770
89387, 7, 1002, 17, 16310, -700, -630
89407, 4, 1008, 11, 15890, -70, -770
89427, -47, 1011, 67, 13090, 0, 560
89447, 4, 1004, 17, 10780, -3360, 1680
89467, -1, 1016, 1, 2100, 700, 2100
89487, 8, 1007, 3, 630, -7210, 2100
89507, 13, 996, 18, -3220, -12530, 2030
89527, 10, 994, 27, -2730, -15540, 1820
89547, 10, 1006, 7, 3850, -21280, 1820
89567, 12, 998, 13, 9590, -25060, 1260
89587, 8, 967, 79, 14070, -23590, 1050
89607, 7, 1013, -10, -2030, -1120, 2030
89627, 25, 1001, -2, 2590, 140, 1470
89647, 4, 1002, 17, 280, 2100, 1750
89667, 2, 1014, 0, 1190, 3430, 2100
89687, 6, 1000, 13, 770, 1190, 2030
89707, 8, 999, 20, -770, -210, 2100
89727, 21, 994, 3, 4340, -420, 1890
89747, 8, 1009, -2, 8610, -3430, 1470
89767, 6, 1007, -3, 8190, -3430, 1610
89787, 6, 1005, 6, 4480, -1890, 1750
89807, 3, 997, 25, 840, -1890, 1820
89827, 9, 1006, 0, 2030, -3640, 1750
89847, 12, 999, 3, 5880, -5670, 1820
89867, 16, 1003, -9, 5110, -6510, 1890
89887, 11, 1007, -14, 3640, -5320, 1960
89907, 7, 1006, 2, 2520, -2240, 1960
89927, 7, 1001, 12, 1890, -210, 1610
89947, 8, 1008, -4, -980, 70, 1470
89967, 8, 991, 31, -3990, -140, 1890
89987, -35, 937, 107, -5810, -280, 2100
90007, 7, 1003, 12, 2450, -7770, 1750
90027, 18, 1007, -1, 12390, -11480, 1540
90047, -18, 1014, 27, 12530, -2800, 1750
90067, 11, 1003, -11, 8260, -1960, 1960
90087, 9, 997, 14, 3990, -6510, 2100
90107, 14, 1004, -10, 7280, -2660, 1960
90127, 4, 1001, 8, 10360, 490, 2100
90147, 6, 996, 12, 11690, 8050, 4340
90167, 25, 1027, -26, 11760, 2660, 3220
90187, 9, 1006, -27, 13440, -6510, -2730
90207, 6, 1005, -25, 13510, -4410, 910
90227, 7, 1007, -29, 11340, -1260, 1750
90247, 6, 1002, -23, 10220, -70, 1680
90267, 14, 1000, -18, 8330, -70, 1470
90287, 4, 1009, -38, 7280, -70, 1470
90307, 4, 1009, -38, 6580, -70, 1680
90327, 11, 1004, -34, 6440, -140, 1890
90347, 10, 1007, -43, 8050, 0, 1680
90367, 6, 1003, -41, 6510, -70, 1680
90387, 40, 996, -84, 2030, 0, 1820
90407, 14, 999, -42, -420, 4410, 1680
90427, 14, 994, -21, 560, 13020, 1610
90447, 45, 985, -85, 4130, 21350, 1330
90467, 23, 993, -42, 8120, 23800, 1120
90487, -2, 1008, -41, 8330, 20020, 770
90507, -37, 1008, 18, 7070, 13090, 840
90527, 12, 1016, -55, 3640, 9870, 1120
90547, 8, 1010, -37, -910, 10430, 1190
90567, 6, 1000, -24, -4340, 6930, 1470
90587, 6, 1008, -33, -4830, 560, 1680
90607, 3, 1001, -24, -3640, -70, 1820
90627, 26, 1014, -39, -2660, -280, 2030
90647, 1, 999, -15, -1680, -7280, 1960
90667, 4, 1004, -17, -3010, -5320, 1890
90687, 4, 991, -1, -2310, 70, 1890
90707, 7, 1003, -20, -1330, -140, 1960
90727, 8, 1001, -24, 1890, -280, 2030
90747, 0, 999, -7, 3010, -280, 2030
90767, 7, 1003, -20, 2100, 140, 1610
90787, -36, 1008, 9, 1470, 210, 1540
90807, 6, 1005, -21, 2940, 2730, 1890
90827, 0, 1005, -18, 7840, 15680, 1330
90847, -9, 1002, -29, 7630, 6160, 1540
90867, 10, 1002, -33, 8470, 1050, 1540
90887, 0, 1006, -29, 6930, -3430, 1680
90907, 5, 1007, -34, 3080, -1120, 1610
90927, 1, 1006, -29, 1470, -140, 1820
90947, 9, 1001, -26, 630, 0, 1960
90967, 20, 1002, -29, 2310, 5600, 1470
90987, 7, 1002, -30, 2100, 12040, 1120
91007, 11, 1000, -30, 840, 12320, 700
91027, 137, 933, -180, -1120, 11270, -1400
91047, 16, 1034, -33, 9520, 16380, 4690
91067, 49, 971, -41, 17220, 32340, 1540
91087, -40, 1095, 147, 39620, 44310, -770
91107, 72, 937, -207, 34510, 34440, -980
91127, -34, 1010, -42, 34790, 33110, -1680
91147, 150, 911, -262, 17500, 25900, -4060
91167, 25, 873, -183, 53060, 43330, 980
91187, 21, 979, -160, 63700, 42490, -3850
91207, 30, 1044, -135, 53130, 40950, -11060
91227, -46, 976, -120, 34650, 46620, -22750
91247, 76, 1021, -174, 4340, 36610, -18550
91267, -22, 988, -137, -5390, 31990, -25620
91287, -44, 985, -128, -13510, 48650, -39830
91307, 92, 866, -242, -13720, 56280, -44380
91327, -61, 999, -133, 2310, 60690, -22400
91347, -45, 1044, -89, 5040, 47320, -13230
91367, -173, 918, -297, -4340, 28630, 6580
91387, -32, 1004, -144, -18410, 18830, 21210
91407, -74, 999, -135, -17500, 22820, 16170
91427, -81, 997, -101, -24570, 34650, 19180
91447, -144, 1066, -7, -28000, 33110, 32480
91467, 38, 1030, -63, -30380, 3710, 21070
91487, -53, 1009, -44, -39830, -3010, 14280
91507, -6, 949, -180, -40950, 13860, 21070
91527, -7, 982, -65, -58800, -9240, 16520
91547, 71, 979, -66, -45150, -12180, 5530
91567, 60, 992, -21, -42210, -9450, 2380
91587, 63, 997, 35, -35560, 980, 2870
91607, 9, 966, -77, -21770, 16730, 2800
91627, -24, 975, -87, -10780, 41300, 3500
91647, 21, 996, 59, 1050, 64330, 3850
91667, 66, 970, -17, -770, 71750, 3360
91687, 66, 998, 57, 2170, 77000, 4340
91707, -30, 1012, 141, 7210, 94010, 4690
91727, -14, 990, 47, 5740, 118510, 4970
91747, -17, 1010, 6, 3640, 116690, 5110
91767, 37, 971, -18, 840, 111580, 5390
91787, 21, 990, -59, -5810, 117670, 5390
91807, 78, 1002, 49, -8400, 134890, 2100
91827, -53, 1001, 60, -12740, 147840, 7980
91847, 88, 941, 62, -1610, 130970, 7630
91867, -321, 1171, 39, 7980, 101430, 5810
91887, 5, 1095, 15, 17710, 111020, 6300
91907, 15, 1068, 123, 17360, 119630, 7910
91927, 88, 1020, 125, 11200, 141330, 6090
91947, -57, 992, 0, 8050, 151060, 5110
91967, -35, 990, 19, 6510, 154840, 5530
91987, -40, 998, 52, 13440, 107450, 4200
92007, 11, 1023, -3, 13580, 78400, 3010
92027, 94, 1018, -17, 3430, 80780, 3570
92047, -28, 961, -36, -6650, 86310, 3640
92067, 14, 996, -40, -13930, 107940, 4340
92087, -5, 1017, 124, -7350, 117110, 5950
92107, 31, 986, 48, -980, 105560, 5040
92127, 24, 997, -4, -2730, 63210, 2870
92147, -13, 1004, 20, 1120, 62160, 3360
92167, -22, 1010, 41, 4200, 85890, 4690
92187, 14, 1021, 1, 4970, 86170, 3220
92207, 3, 1005, 42, 1260, 67200, 2240
92227, -22, 1045, 50, 3920, 85050, 5740
92247, 13, 992, 23, 5880, 89530, 5600
92267, 61, 973, -73, 420, 59430, 3360
92287, 34, 1020, 56, -1470, 30450, 420
92307, 1, 1002, 15, 4830, 21070, 2380
92327, 10, 1009, 45, 2940, 15960, 2870
92347, 46, 1007, 14, 1890, 14210, 2100
92367, 57, 877, -60, 2520, 17780, 3150
92387, 12, 998, -8, 2170, 23310, 2030
92407, 30, 973, -63, 1260, 20230, 2170
92427, 40, 1007, 38, 2590, 35910, 2660
92447, -133, 1102, -109, 2590, 58170, 2800
92467, 50, 1006, 10, 1610, 69300, 4970
92487, 7, 1020, 6, 4410, 14140, 3080
92507, 31, 1016, 6, 7560, 27160, 4410
92527, -4, 980, 52, 1680, 24430, 1890
92547, 16, 999, 15, -700, 17430, 280
92567, 26, 1009, 0, 1190, 31290, 1750
92587, -91, 1017, 75, 1330, 57470, 3990
92607, 21, 1028, 1, 980, 57470, 3710
92627, 12, 1004, 24, 2660, 19180, 1960
92647, 1, 1204, -4, -2380, 3500, 2800
92667, -116, 1009, -65, 2380, 4340, 3850
92687, -13, 1000, 30, 13230, 2030, 4480
92707, 38, 1005, 20, 11900, 10430, 3150
92727, 49, 1001, 14, 4620, 3220, 1260
92747, 10, 1007, 9, 1820, -4060, 1610
92767, 11, 1009, 0, 2800, -4200, 1750
92787, 79, 1013, -12, 2310, -1050, 1680
92807, -35, 1007, -4, 1820, -19600, 1470
92827, 44, 1004, 10, 0, -6790, 1680
92847, 4, 988, -13, -1190, -10080, 1190
92867, 44, 1013, -1, 140, -9660, 210
92887, -8, 1009, 18, 560, 4060, 1050
92907, -7, 1021, 12, 2520, 3360, 1050
92927, -2, 1002, 20, 2450, 350, 1820
92947, 1, 1006, 24, 1610, 5390, 1120
92967, 64, 999, 2, 2520, 3780, 1890
92987, 0, 997, 30, 5110, 7420, 3360
93007, 7, 1009, 13, 6650, 6930, 3850
93027, 10, 1000, 24, 4970, 1120, 2310
93047, -33, 1023, -1, 2240, -1260, 1680
93067, -1, 1009, 9, 1190, -3920, 1540
93087, 12, 1002, 21, 2590, -4200, 1470
93107, 10, 1010, 11, 2660, -4690, 1680
93127, 14, 1001, 19, 2240, -3850, 1750
93147, 12, 998, 22, 350, -490, 1750
93167, 6, 996, 31, 560, 0, 1680
93187, 12, 1012, 12, 910, 0, 1750
93207, 54, 1010, -13, 70, -1120, 1680
93227, 14, 1003, 19, 1540, -9100, 1750
93247, 34, 996, 3, 770, -10150, 1540
93267, 18, 1028, 44, 1260, -8890, 1470
93287, 15, 989, 48, -3220, -630, 1820
93307, 20, 990, 54, -16310, 3710, 2380
93327, -15, 1014, 81, -11410, 13580, 2870
93347, 43, 954, 57, 420, 4060, 2100
93367, -5, 1015, 26, 13160, -11340, 1050
93387, -7, 1028, 54, 28490, -20510, 420
93407, 24, 997, 14, 8680, -16170, 1400
93427, 23, 1011, -1, 4130, -8470, 2030
93447, 48, 1027, -10, 6720, 0, 2590
93467, 32, 968, 18, 7420, -70, 1190
93487, 15, 1035, -40, 13860, -2100, 1260
93507, 46, 1039, -76, 10500, -700, 1330
93527, -126, 976, 148, 0, -140, 1820
93547, 13, 984, 55, -280, 490, 2170
93567, 52, 999, 7, -6370, 5740, 2030
93587, 4, 973, 78, -3710, -1750, 1750
93607, 13, 1038, -8, 70, -1050, 1820
93627, 45, 970, 57, 1330, 4060, 1960
93647, 31, 1016, 4, 3290, 8540, 2100
93667, 8, 997, 22, 6370, 5880, 1890
93687, 8, 1006, 15, 7490, 8470, 1960
93707, 15, 998, 9, 10920, 5600, 1750
93727, 24, 990, 17, 15260, 1470, 1470
93747, 8, 1002, -5, 17990, -210, 1470
93767, 15, 1005, -17, 20370, -350, 1470
93787, 8, 1009, -24, 23100, -420, 1400
93807, 12, 1002, -25, 22400, -350, 1330
93827, 10, 1003, -30, 17710, -210, 1400
93847, 12, 1005, -36, 16030, -210, 1540
93867, 11, 1016, -53, 14140, -280, 1680
93887, 13, 1004, -38, 7770, -210, 1820
93907, 11, 1004, -30, -2240, -140, 2170
93927, 11, 999, -20, -8190, -70, 2170
93947, 11, 996, -10, -9310, -70, 2100
93967, 12, 999, -9, -6160, -140, 2170
93987, 9, 999, -12, 0, -70, 1890
94007, 9, 1005, -28, 6230, -140, 1610
94027, 11, 1003, -36, 10080, -140, 1540
94047, 9, 1009, -38, 10220, -70, 1610
94067, 133, 945, -35, 5950, 140, 1680
94087, 13, 1000, -8, -22960, -420, 2100
94107, 14, 1003, -20, -1890, -1050, 1890
94127, 14, 1000, -18, 2030, -70, 1820
94147, 13, 1004, -17, 560, 70, 1820
94167, 11, 1002, -12, 700, 0, 1890
94187, 11, 1003, -12, 1260, -70, 1820
94207, 11, 1001, -13, 1330, -70, 1890
94227, 10, 1005, -20, 1330, -140, 1890
94247, 9, 1005, -18, 1400, 0, 1750
94267, 2, 1000, -6, 140, 70, 1820
94287, 9, 1006, -8, -2450, 1260, 1890
94307, 8, 1002, -5, -4830, 1890, 2030
94327, 14, 1001, -4, -4340, -70, 1960
94347, 12, 1002, 0, -4130, -140, 2030
94367, 13, 1003, 0, -2590, 0, 1960
94387, 11, 1004, 5, -1120, 70, 1890
94407, -115, 1088, -147, -490, 70, 1960
94427, 18, 1008, 12, -6160, 4830, 1960
94447, 31, 1002, 14, -24010, 22120, 2520
94467, 30, 1004, 21, -14000, 10920, 2380
94487, 13, 1030, -15, -4340, 2310, 1960
94507, 16, 1017, 4, -630, 0, 1820
94527, 12, 981, 52, 2030, -3640, 1750
94547, 12, 1003, 20, 2030, -3500, 1750
94567, -115, 953, 95, 2870, -700, 1750
94587, 19, 1011, 12, 3080, -840, 1750
94607, 19, 1008, 16, 3290, -5460, 1750
94627, 14, 1003, 20, 1540, -4060, 1750
94647, 15, 994, 26, 0, -1190, 1890
94667, 10, 1010, 45, 3150, 70, 1820
94687, 14, 1044, -34, 3920, 140, 1680
94707, 6, 1010, 16, 2030, -210, 1820
94727, -39, 970, 31, 0, -350, 1820
94747, 21, 1060, 8, 3430, -4760, 1680
94767, 10, 983, 34, 2590, -1120, 1890
94787, 4, 989, 7, 3220, -1330, 2030
94807, 18, 1001, 32, 3920, 2170, 2030
94827, 73, 989, 32, 910, -70, 1890
94847, 26, 958, 78, 2030, -2030, 1680
94867, 9, 1023, 4, 3360, -1890, 1610
94887, 13, 1006, 20, 4200, -70, 1820
94907, 22, 1012, 8, 5390, 70, 1960
94927, 27, 1033, -33, 4970, 3360, 2100
94947, 26, 1022, -19, 4060, 7560, 2100
94967, 37, 1013, -10, 3850, 6510, 2100
94987, 11, 1016, -1, 1540, 3920, 2100
95007, 10, 1011, 6, 1610, 280, 1750
95027, 3, 1025, -14, -910, -140, 1610
95047, 21, 1009, 10, 1820, -2240, 1890
95067, 6, 1018, -4, 9940, -7000, 2380
95087, 15, 1000, 19, 10080, -3360, 1890
95107, 15, 1006, 2, 7840, -280, 1680
95127, 18, 995, 8, 7140, 210, 1470
95147, 18, 997, 16, 8050, 140, 1400
95167, 9, 1000, 7, 8050, 1540, 1470
95187, 10, 1008, -1, 5950, 3080, 1680
95207, 13, 999, 10, 4690, 490, 1470
95227, 7, 997, 13, 4270, -70, 1470
95247, -40, 980, 53, 8050, -210, 1330
95267, 16, 1001, -5, 13580, -4690, 1330
95287, -14, 1026, -31, 14210, -6370, 1470
95307, 16, 1021, -40, 7910, -5950, 1330
95327, 0, 1001, 9, -6440, -2380, 1680
95347, 7, 998, 24, -19040, 560, 1890
95367, -16, 973, 53, -20860, 3990, 2100
95387, -13, 1000, 31, -1050, 15470, 2590
95407, 8, 993, 30, -350, 3220, 2590
95427, 14, 1017, -10, -1960, -490, 3010
95447, 0, 1017, 59, 8750, -1610, 2520
95467, 35, 1010, -38, 9940, 13860, 2660
95487, -2, 1005, 17, 8120, 21490, 2170
95507, -22, 997, 40, 630, 27370, 2380
95527, -2, 997, 40, 3290, 31430, 2450
95547, 16, 990, 54, 8050, 29330, 2030
95567, 36, 996, 22, 10220, 20160, 2030
95587, 50, 998, -22, 21210, 4270, 1470
95607, 10, 1012, -39, 29540, -6860, 910
95627, 13, 1008, -50, 32970, -5950, 910
95647, 14, 1014, -58, 24290, -3990, 630
95667, 12, 1010, -44, 12530, 70, 630
95687, 11, 1002, -31, 840, 560, 980
95707, 8, 1003, -33, -4620, 840, 1400
95727, 13, 1012, -42, -7700, 3640, 1680
95747, 16, 1004, -18, -13930, 11060, 2170
95767, 16, 1001, -9, -21980, 17920, 2240
95787, 8, 988, 39, -25410, 21070, 2520
95807, 2, 1009, 15, -25690, 22680, 3150
95827, 3, 989, 37, -18550, 17570, 2870
95847, 15, 996, 29, -7140, 8960, 2310
95867, -337, 1066, 582, 5390, 560, 1890
95887, -3, 1012, 67, 8960, -6930, 1820
95907, -16, 1037, 100, 8120, -34650, 1400
95927, 12, 1064, 119, 10990, -37870, 1190
95947, -11, 1011, 50, 4200, -45850, 1050
95967, -8, 1015, 21, 3430, -41510, 1680
95987, -3, 1010, 20, 4900, -43120, 1610
96007, 17, 1009, 0, 1820, -36890, 1330
96027, 0, 1004, 24, -2450, -27720, 1750
96047, -12, 1011, 42, -5390, -21980, 2100
96067, 39, 1004, -38, -3850, -27160, 1750
96087, -38, 1032, 10, -3570, -28700, 1190
96107, -54, 1007, 135, -1680, -9590, 1260
96127, 22, 1004, 3, 0, -3220, 1330
96147, 34, 1001, -15, 1890, -15120, 1050
96167, 11, 1000, 24, 3990, -15750, 1400
96187, 13, 1005, 14, 4270, -5810, 1680
96207, 9, 1003, 16, 4060, -210, 1680
96227, 10, 1006, 10, 3080, 70, 1680
96247, 12, 995, 27, 3150, 140, 1680
96267, -5, 1022, -19, 3290, 70, 1820
96287, 10, 1008, -1, 8050, -70, 1680
96307, 110, 1045, -49, 11900, 0, 1470
96327, 6, 999, 12, 5390, 1120, 1260
96347, 4, 992, 28, 2100, 11270, 1960
96367, 24, 1011, -12, 700, 12110, 2170
96387, 25, 993, -28, 7280, 10430, 2100
96407, -11, 993, 11, 15400, 26390, 2660
96427, 138, 1059, 184, 28840, 47180, 1960
96447, 117, 969, 32, 46200, 48720, 630
96467, 44, 925, -32, 74060, 64260, -2170
96487, -37, 981, -195, 105000, 79520, -6230
96507, -14, 977, -196, 125020, 68250, -11340
96527, 3, 953, -348, 147560, 59640, -13300
96547, 44, 998, -348, 114380, 37870, -10360
96567, 30, 1002, -340, 59500, 40600, -10360
96587, 21, 1002, -303, -5740, 42840, -9800
96607, -50, 963, -244, -52990, 63490, -14350
96627, -18, 964, -194, -70210, 61040, -11760
96647, 14, 978, -197, -69090, 56630, -9240
96667, 29, 980, -173, -64330, 54320, -7770
96687, 14, 976, -137, -64540, 53900, -6090
96707, -11, 987, -125, -55230, 46900, -3640
96727, 11, 988, -119, -43190, 33180, -1260
96747, 6, 991, -106, -36610, 31850, -770
96767, 7, 1004, -101, -32970, 32620, -490
96787, -12, 1005, -71, -32760, 33110, -210
96807, 21, 976, -129, -48370, 21280, 1610
96827, 1, 1010, -82, -55790, 13650, 2450
96847, -5, 1066, 70, -54530, 20510, 2310
96867, 47, 1006, 41, -64610, 25060, 3010
96887, 37, 964, 54, -73080, 27930, 4200
96907, 19, 1009, 25, -18130, 21560, 3010
96927, 21, 993, -10, 4060, 27300, 2660
96947, 3, 1005, 21, 5040, 33600, 2940
96967, 0, 994, 80, 6440, 50190, 3360
96987, -20, 992, 72, 4480, 60270, 3430
97007, -3, 994, 11, 9100, 66080, 3640
97027, 50, 1008, 61, 15190, 71470, 2940
97047, 28, 1003, 21, 26530, 85750, 2170
97067, 50, 1021, -24, 33880, 83930, 1610
97087, 39, 1011, -49, 28280, 64050, 1610
97107, 17, 1003, -27, 14070, 71680, 1750
97127, 22, 992, 10, 2100, 75320, 1260
97147, 16, 983, 14, -3710, 68040, 1190
97167, 41, 1037, 141, -4550, 101290, 1680
97187, -82, 970, 61, -15050, 166530, 2520
97207, -241, 969, 83, -24430, 171220, 3920
97227, -17, 1070, -46, -17570, 125370, 4410
97247, 23, 1012, 0, -6020, 77490, 4340
97267, -15, 983, 54, 1120, 74410, 3710
97287, -14, 1010, -8, 5600, 97580, 4270
97307, -1, 991, 55, 12880, 87850, 3010
97327, 1, 1001, 38, 11480, 72870, 2240
97347, 32, 1027, 44, 17430, 84210, 2240
97367, 22, 1006, -8, 23030, 91420, 2240
97387, -86, 1025, 106, 25900, 58030, 1190
97407, 120, 1035, -69, 34510, 66570, 140
97427, 88, 948, -216, 27090, 74200, -700
97447, -20, 1071, 41, 29400, 118020, -1540
97467, 8, 951, -180, 26740, 141960, -4060
97487, -97, 1025, 33, -2730, 125090, -2520
97507, -4, 1004, -20, 8610, 77770, -1470
97527, 11, 1002, -53, 2030, 25480, 1050
97547, 16, 1008, -49, -1610, 3150, 1470
97567, -24, 1017, 17, -4900, 140, 1820
97587, 20, 998, -19, -5460, 12950, 1470
97607, 17, 997, -29, -6860, 18550, 1400
97627, 46, 987, -68, -4060, 12110, 1960
97647, -90, 995, -62, 2310, 16450, 1540
97667, -168, 978, 84, 11900, 45780, 210
97687, 40, 1029, 8, 16380, 70280, -1820
97707, 78, 999, -12, 17990, 37590, -140
97727, 246, 1075, -68, 12530, 59850, -980
97747, -11, 990, -41, 7840, 70420, -1610
97767, 108, 996, -116, 5180, 77630, -1890
97787, -231, 943, 58, 14140, 31990, -280
97807, -9, 1004, -54, 350, 81410, -1960
97827, 47, 1004, -69, 6860, 32410, 210
97847, -18, 1006, -59, 4410, 18130, 910
97867, 17, 1004, -60, -1680, 17150, 1400
97887, -89, 983, -22, -7070, 2310, 2380
97907, -31, 1007, -8, -15610, 15750, 1540
97927, 22, 1001, -33, -22610, 40950, 700
97947, 135, 1031, -60, -25760, 42910, 1190
97967, 7, 995, 0, -25900, 33740, 1750
97987, -50, 991, 29, -25480, 37590, 2030
98007, 63, 1007, -4, -17710, 23870, 2240
98027, 15, 1000, 7, -10010, 23170, 2170
98047, 1, 1002, 23, -1190, 20860, 2450
98067, 30, 1001, -14, 6720, 5040, 2100
98087, 39, 1004, -13, 5040, 6300, 1750
98107, 9, 1006, 1, 2100, 2660, 1960
98127, 11, 1004, 4, 140, 1540, 1750
98147, 16, 1000, 5, -210, 70, 1610
98167, 15, 997, 6, 1610, -140, 1820
98187, 14, 999, 7, 5320, -70, 1680
98207, 12, 1008, -11, 10150, -70, 1470
98227, 13, 1008, -23, 15260, -140, 1400
98247, -46, 991, 10, 15680, -70, 1190
98267, 14, 1001, -7, 11060, 6860, 1330
98287, 8, 1001, -7, 7980, 8890, 1470
98307, 11, 1003, -16, 10920, -70, 1540
98327, 18, 1000, -36, 14980, -280, 1680
98347, 46, 1014, -53, 20300, -210, 1470
98367, -88, 978, -9, 17360, 23660, 770
98387, 36, 1009, -63, 16450, 28280, 70
98407, -13, 1002, -53, 14770, 20860, -70
98427, 3, 1006, -56, 9170, 17710, 630
98447, 11, 1004, -57, 5320, 7490, 1470
98467, 11, 1001, -49, 3080, 0, 2170
98487, 12, 1001, -52, 2310, -420, 2240
98507, 11, 1004, -54, 2240, -350, 2240
98527, 15, 1003, -56, 1470, -140, 1960
98547, 13, 1003, -53, -1330, 0, 1750
98567, 10, 1000, -41, -3010, 0, 1680
98587, 12, 996, -38, -2240, -70, 1890
98607, 14, 997, -37, 2590, -210, 1820
98627, 12, 1003, -54, 8750, -210, 1610
98647, 9, 1003, -58, 11200, 0, 1330
98667, 11, 1005, -62, 9030, -70, 1750
98687, 12, 1004, -60, 4270, -280, 2240
98707, 11, 1007, -44, -490, -1680, 2240
98727, 17, 1001, -48, -3570, -12250, 2730
98747, 63, 1002, -77, -4480, -15050, 2940
98767, 13, 1004, -53, -6790, -16100, 2590
98787, 36, 1005, -83, -8050, -5390, 1750
98807, 12, 1002, -37, -11620, -9730, 2310
98827, 13, 994, -14, -12600, -560, 1960
98847, 12, 995, -15, -9310, 70, 1820
98867, 10, 1003, -26, -4480, 140, 1680
98887, 12, 1001, -24, 1890, 0, 1820
98907, 11, 1003, -28, 4900, -210, 2030
98927, 12, 1003, -32, 6790, -210, 2030
98947, 14, 1005, -37, 6440, -350, 2170
98967, 13, 1004, -32, 4830, -280, 1960
98987, 10, 1004, -33, 2240, -140, 1750
99007, 15, 998, -23, 1260, -70, 1750
99027, 13, 1006, -36, 2170, 0, 1540
99047, 15, 1003, -29, 4130, 0, 1470
99067, 12, 1001, -29, 4340, -70, 1680
99087, 10, 1001, -30, 6230, -140, 1680
99107, 12, 1001, -34, 8260, -210, 1820
99127, 15, 1003, -42, 10290, -280, 1960
99147, 10, 1004, -44, 11060, -350, 2030
99167, 12, 1003, -49, 10220, -280, 1890
99187, 14, 1005, -48, 8400, -280, 1820
99207, 19, 1003, -53, 6370, -210, 1820
99227, 12, 1003, -46, 4970, -70, 1680
99247, 11, 999, -50, 4270, 0, 1540
99267, 11, 1002, -50, 5110, -70, 1540
99287, 10, 1002, -55, 5460, 70, 1330
99307, 12, 1001, -51, 5040, 0, 1470
99327, 10, 1000, -52, 3500, -140, 1680
99347, 12, 1000, -49, 3780, -140, 1750
99367, 11, 1003, -59, 5180, -140, 1890
99387, 6, 1005, -57, 6020, -210, 2030
99407, 12, 1001, -56, 5810, -280, 2030
99427, 15, 999, -56, 5460, -140, 1750
99447, 12, 1001, -56, 5320, -70, 1680
99467, 11, 1001, -58, 5740, -70, 1610
99487, 13, 999, -60, 6300, -70, 1470
99507, 11, 1003, -66, 6510, 0, 1190
99527, 9, 1004, -71, 6300, 0, 1400
99547, 12, 1004, -68, 4760, -140, 1680
99567, 9, 1002, -68, 1330, 0, 1890
99587, 12, 1000, -57, -1820, 0, 1960
99607, 12, 999, -55, -4060, 0, 2030
99627, 12, 1003, -57, -3430, -70, 2030
99647, 9, 1002, -51, -2450, -140, 2030
99667, 11, 1001, -52, -3150, -70, 1960
99687, 16, 999, -48, -3570, -70, 2030
99707, 13, 1000, -42, -3290, -140, 2100
99727, 12, 998, -38, -2380, -70, 1820
99747, 13, 998, -43, -630, -140, 1820
99767, 10, 1000, -47, 2870, -210, 1960
99787, 13, 1003, -53, 5950, -210, 1890
99807, 12, 1001, -56, 7210, -210, 1890
99827, 14, 1004, -58, 6090, -210, 1890
99847, 11, 1005, -56, 5040, -140, 1820
99867, 11, 1003, -53, 4130, -140, 1750
99887, 12, 1002, -57, 3500, -70, 1750
99907, 14, 1003, -56, 3080, -140, 1820
99927, 11, 998, -52, 2450, -70, 1820
99947, 14, 1002, -53, 1750, -140, 1750
99967, 14, 1002, -54, 1820, -210, 1890
99987, 11, 1003, -57, 1820, -140, 1960
100007, 13, 1002, -55, 1120, 0, 1680
100027, 13, 1003, -56, -1260, 140, 1750
100047, 14, 1004, -50, -4060, 0, 2030
100067, 13, 999, -38, -7350, 0, 2240
100087, 15, 1000, -33, -9870, 140, 2030
100107, 14, 1004, -31, -9940, -70, 2170
100127, 11, 1000, -25, -9030, -70, 2310
100147, 17, 1000, -22, -8050, 0, 2170
100167, -11, 1003, 20, -6300, 140, 2030
100187, 14, 995, -18, 1470, 29190, 1330
100207, 13, 997, -22, 4480, -210, 1680
100227, 11, 1003, -34, 12600, -140, 1400
100247, 10, 1006, -40, 14210, -140, 1330
100267, 10, 1005, -45, 14210, -140, 1400
100287, 11, 1002, -50, 13020, -140, 1540
100307, 13, 1001, -50, 10710, -210, 1820
100327, 12, 1000, -51, 10010, -210, 1820
100347, 11, 1003, -58, 10010, -140, 1610
100367, 11, 1002, -57, 8610, -70, 1470
100387, 12, 1006, -61, 6370, -70, 1540
100407, 11, 1003, -58, 3990, 0, 1470
100427, 12, 1002, -59, 700, 0, 1680
100447, 10, 1000, -45, -1680, 0, 1750
100467, 12, 999, -48, -630, 70, 1540
100487, 18, 1002, -57, 2590, 70, 1540
100507, 106, 978, -85, 10150, 3850, 2100
100527, -107, 1026, -39, 40180, 14840, 420
100547, -115, 1059, 36, 51170, -140, 980
100567, 10, 998, -93, 26110, -13160, 1890
100587, 37, 1002, -111, 8540, -4690, 2380
100607, 13, 1001, -108, 8680, -5740, 2030
100627, 9, 1002, -103, 4620, -70, 1470
100647, 12, 1001, -100, 560, 0, 1820
100667, 13, 1000, -100, -3080, -210, 2450
100687, 11, 996, -91, -5600, -70, 2170
100707, 11, 995, -84, -5880, 70, 1820
100727, 10, 995, -85, -3640, 0, 1750
100747, 7, 1000, -87, -210, 210, 1610
100767, 12, 1000, -92, 1330, 1470, 1680
100787, 9, 1001, -90, 910, 70, 1960
100807, 11, 1002, -87, -2590, -70, 1820
100827, 13, 1000, -80, -6650, -70, 1960
100847, 15, 1002, -77, -9520, -140, 2030
100867, 13, 999, -68, -10290, -560, 2100
100887, 14, 1002, -71, -10010, 140, 2380
100907, 16, 1002, -66, -9590, 70, 2240
100927, 5, 996, -43, -11410, 1330, 2030
100947, 15, 999, -48, -13650, 8680, 1540
100967, 8, 996, -37, -11760, 6510, 1890
100987, 6, 997, -37, -7490, 5530, 2380
101007, 15, 1000, -41, -2800, 3220, 2310
101027, 2, 1002, -41, 210, 420, 1960
101047, 11, 1005, -42, -420, 4970, 1750
101067, 114, 975, -164, -1260, 2590, 1960
101087, 30, 998, -62, 770, 8260, 1890
101107, -26, 1016, 9, 2800, 13930, 1470
101127, 34, 1000, -72, 2310, 12740, 1260
101147, 13, 1003, -48, -840, 10150, 1470
101167, -5, 993, -50, -2450, 21770, 1120
101187, 17, 1040, 1, -3850, 25550, 1120
101207, 5, 950, -130, 5390, 27580, 210
101227, 20, 992, -99, 29540, 21560, 0
101247, 82, 1061, 18, 72100, 29050, -11900
101267, 0, 1040, 7, 86450, 29680, -17570
101287, -6, 1000, -110, 41230, 14210, 3080
101307, 12, 999, -122, 3220, 9240, 10710
101327, -37, 979, -124, -2870, 8050, 4900
101347, -44, 1004, -117, -1890, 8400, 4760
101367, 55, 1067, -76, 8330, 560, 1680
101387, 37, 1066, -98, 13370, -5110, -4480
101407, 38, 1065, -99, 6020, -1610, 2940
101427, 1, 1030, -116, -770, 9380, 2100
101447, -10, 979, -193, -9520, 11200, 3430
101467, -34, 1009, -134, -15330, 10430, 8260
101487, 0, 1042, -111, 4200, 12460, 9520
101507, 65, 1081, -64, 18690, 17290, 3710
101527, 68, 1076, -13, 21420, 20790, -490
101547, 110, 1070, -100, 6510, 17080, 4480
101567, 106, 1020, -136, -27440, 15400, 10500
101587, 112, 1042, -101, -36330, 17570, 20300
101607, 22, 984, -84, -24010, 27020, 32270
101627, 4, 906, -137, -19320, 37450, 42910
101647, -68, 922, -39, -32060, 45010, 36120
101667, -66, 913, -73, -34860, 90020, -4480
101687, 189, 1013, -7, -31010, 86380, -7420
101707, 116, 1016, 10, -18480, 42140, -20930
101727, 91, 915, -24, -18550, 4270, 6510
101747, 98, 891, -87, -25410, 15330, 18480
101767, 41, 963, -12, -27930, 22750, 7350
101787, 37, 1018, 44, -13930, 31290, 4130
101807, -35, 1012, 54, 2730, 26810, 1610
101827, 22, 986, 22, -9520, 25130, 700
101847, 65, 958, -20, -25690, 20090, -8190
101867, 74, 1005, 25, -31430, 14770, -19950
101887, 99, 1036, 52, -27230, 14980, -28980
101907, -9, 970, 32, -17290, 12040, -25830
101927, -39, 976, 28, -14700, 6510, -2100
101947, 9, 953, 51, -21000, 10710, 7700
101967, 6, 981, 75, -14910, 7840, -4130
101987, -3, 989, 75, -10430, 6930, -6230
102007, 10, 978, 81, -10010, 490, -1890
102027, 25, 978, 93, -10220, -3710, -1680
102047, 32, 992, 97, -6300, -2660, -5530
102067, 22, 977, 98, -15890, 630, -17220
102087, 48, 986, 76, -21280, 210, -23520
102107, 63, 1034, 106, -17360, -2100, -26180
102127, 44, 1078, 161, -140, 2310, -12180
102147, -47, 1027, 170, 6300, 1050, 13300
102167, -19, 1003, 117, -10430, -6440, 19670
102187, -61, 947, 79, -21700, -8960, 13580
102207, -36, 962, 90, -18200, -5880, 5670
102227, 8, 1019, 141, -7070, -2660, -10500
102247, 16, 1031, 179, 210, -6860, -11620
102267, 62, 1033, 122, -11970, -13300, -6650
102287, 3, 983, 122, -13510, -11060, -1120
102307, -48, 986, 142, -5810, 6370, 1960
102327, -26, 965, 149, -4480, 9730, -910
102347, -9, 989, 139, -7910, 8680, -9520
102367, -63, 1015, 187, -13230, 18270, -14140
102387, -47, 1007, 153, -6230, 10430, -8820
102407, 77, 976, 155, 9730, 770, -5670
102427, -3, 1068, 200, 9240, -1750, -9170
102447, -36, 1003, 247, 10290, 8330, 7770
102467, 38, 953, 108, -1820, -15890, 10290
102487, -75, 941, 99, -11480, -22470, 19110
102507, -51, 953, 123, 10290, -3220, 15330
102527, -7, 1010, 181, 30310, 1960, -2940
102547, 10, 1045, 175, 38430, -1330, -15890
102567, -22, 1074, 221, 31080, -6090, -10570
102587, 25, 1022, 145, 15260, -4410, 2800
102607, -13, 959, 83, -1470, -23170, 22680
102627, -49, 919, 61, -11900, -33880, 33040
102647, 17, 926, 71, 4270, -41370, 34930
102667, 25, 937, 88, 25480, -34020, 29330
102687, 30, 962, 105, 31080, -15820, 19040
102707, 24, 963, 63, 30380, -1750, 7350
102727, 13, 990, 68, 31570, -210, 9660
102747, -3, 1048, 145, 41930, -2170, 11270
102767, 64, 1050, 113, 39270, -4340, 5950
102787, 107, 1028, 43, 20650, -12250, 210
102807, 61, 1017, 27, 16660, -22260, 6230
102827, 2, 1045, 44, 24710, -26110, 12180
102847, -31, 1049, 82, 30100, -15540, 9380
102867, 33, 1028, -73, 30730, -15050, 5460
102887, 37, 993, -11, 28840, -26320, 12810
102907, 98, 1057, 34, 40390, -20790, 4830
102927, 88, 1040, 9, 34510, -21560, -6580
102947, 69, 1045, 17, 13930, -21210, 630
102967, 0, 1033, -14, -840, -26390, 9310
102987, 28, 1014, -44, -2380, -38360, 22540
103007, 90, 997, -34, 9590, -44870, 24150
103027, 131, 1001, -60, 11200, -28140, 15190
103047, 99, 1003, -23, 9870, -15400, 12810
103067, 95, 1001, -11, 18830, -16240, 23170
103087, 113, 998, -33, 15820, -19320, 26880
103107, 86, 966, -51, 2940, -13090, 20930
103127, 105, 982, -15, 3990, -7840, 20370
103147, 118, 951, -48, 12320, -7840, 19390
103167, 158, 971, -30, 9590, -10500, 15540
103187, 139, 965, -17, 9030, -14210, 10220
103207, 118, 960, -30, 7350, -24640, 16800
103227, 107, 940, -65, 2240, -28910, 20440
103247, 146, 962, -61, 630, -21700, 16730
103267, 107, 960, -57, 5320, -12040, 10220
103287, 113, 981, -59, 7980, -9590, 10990
103307, 143, 1004, -52, 9660, -7700, 6300
103327, 183, 1038, -21, 16030, -4970, 1400
103347, 148, 997, -70, 13020, -3010, -2030
103367, 120, 973, -73, -1400, -3150, 2380
103387, 111, 959, -73, -2660, -7000, 7000
103407, 130, 976, -69, 490, -6370, 5670
103427, 147, 1016, -22, 6650, -3710, 140
103447, 149, 1005, -51, 12600, -7840, 2660
103467, 113, 983, -94, 3150, -16240, 8610
103487, 133, 992, -46, -2450, -18410, 10780
103507, 174, 983, -93, 0, -18410, 3710
103527, 163, 964, -93, -10080, -30310, -3570
103547, 150, 990, -63, -11060, -30940, -4830
103567, 163, 1005, -48, -2800, -18760, -3710
103587, 142, 990, -61, 6160, -12740, -700
103607, 146, 981, -46, 4270, -5670, 2030
103627, 137, 960, -47, 2590, -1680, 1960
103647, 172, 978, -69, 0, 0, -210
103667, 155, 998, -46, -1260, -560, -1890
103687, 131, 985, -63, 3710, 1540, -1050
103707, 104, 986, -58, 3150, 4060, 1190
103727, 113, 999, -55, 1610, 5600, 910
103747, 101, 984, -57, 2660, 3570, 770
103767, 134, 1002, -44, 3990, 840, 1960
103787, 139, 1003, -62, 3010, -3010, -210
103807, 119, 980, -76, -1540, -9240, 3640
103827, 139, 997, -46, -560, -8400, 7000
103847, 107, 965, -61, 6160, -3360, 5110
103867, 123, 979, -66, 8400, -6370, 7490
103887, 171, 993, -73, 5530, -5810, 4830
103907, 167, 995, -81, 4130, -2730, -1470
103927, 163, 1004, -64, 3640, -2030, -1050
103947, 143, 1003, -60, 7280, -420, 1190
103967, 130, 989, -69, 5320, 3080, 3080
103987, 130, 984, -64, 5110, 3220, 560
104007, 147, 992, -76, 2380, 3570, -2940
104027, 139, 994, -68, 770, -1190, -2590
104047, 117, 993, -61, 630, -2240, 280
104067, 79, 966, -73, -910, -770, -140
104087, 129, 1003, -49, -560, 7490, -4690
104107, 144, 1002, -53, 2520, 4970, -6090
104127, 124, 981, -72, 140, 700, -210
104147, 127, 990, -72, 280, 630, 1050
104167, 144, 1006, -76, 3010, -140, 2030
104187, 157, 1008, -79, 3290, 770, -490
104207, 154, 1007, -59, 3500, 5180, -1190
104227, 146, 993, -68, 1610, 6930, -1890
104247, 117, 1001, -56, -840, 8890, 420
104267, 89, 973, -70, -140, 11690, 2450
104287, 68, 959, -85, -420, 13160, 2590
104307, 88, 982, -67, 5320, 14420, 350
104327, 108, 988, -68, 6860, 17570, -4410
104347, 126, 995, -59, 4760, 20160, -8260
104367, 82, 973, -61, 7140, 16170, -5110
104387, 126, 1029, -63, 6370, 14420, -4550
104407, 152, 1022, -62, 5670, 13230, -6230
104427, 131, 988, -93, 7630, 11480, -1050
104447, 135, 977, -75, 8540, 11830, 2450
104467, 168, 999, -49, 12530, 14070, -700
104487, 134, 974, -64, 6090, 13230, -1330
104507, 122, 971, -72, -770, 15050, 3360
104527, 114, 957, -109, -3640, 18620, 1470
104547, 106, 1001, -56, 3150, 27090, -2030
104567, 131, 1012, -57, 13930, 32200, -6440
104587, 84, 965, -79, 12740, 31360, -5810
104607, 121, 1031, -30, 10430, 31220, -4270
104627, 72, 1007, -108, -2450, 28350, -16310
104647, 71, 965, -132, -18130, 26600, -15610
104667, 95, 1024, -34, 4970, 28770, -9730
104687, 130, 1151, -130, 28070, 29260, -11830
104707, 124, 1014, -82, 15260, 30170, -17080
104727, 89, 967, -88, 13160, 33390, 7350
104747, 107, 1016, -59, 14910, 34300, 16800
104767, 157, 990, -123, 5460, 26880, 14350
104787, -35, 965, -12, 3990, 21420, 17640
104807, 15, 1012, -88, 2100, 30520, 24920
104827, 198, 841, -56, -20300, 54950, 5110
104847, 158, 952, -115, -19390, 69160, -18480
104867, 132, 1056, -97, -3990, 72240, -18900
104887, 137, 1057, -94, 7000, 88690, -4060
104907, 54, 1006, -44, 6650, 130410, 16100
104927, 35, 944, 3, -5250, 177590, 32970
104947, 153, 935, -38, -20300, 163870, 29260
104967, 155, 941, -9, -30030, 131880, 11970
104987, 94, 988, 38, -23030, 133000, 7420
105007, 66, 1044, 38, -10080, 146020, 5950
105027, 143, 961, 35, -13790, 179200, -1680
105047, 231, 1087, 20, -22750, 214830, -5810
105067, 196, 1068, 78, -25480, 196000, -16590
105087, 28, 971, 116, -1820, 142380, 17920
105107, 76, 979, 100, 20370, 120890, 58590
105127, 145, 967, 94, 20230, 120680, 50680
105147, 209, 932, 64, 10220, 118370, 25760
105167, 155, 985, 65, -700, 104650, 10710
105187, 70, 1010, 167, -9170, 90720, -10080
105207, 137, 1084, 142, -15260, 98350, -12530
105227, 66, 972, 144, -10010, 109550, 2170
105247, 130, 917, 124, -16800, 112980, 16100
105267, 91, 930, 117, -3150, 81270, 3850
105287, 75, 1055, 161, 8260, 59290, -15120
105307, 67, 1006, 142, 9100, 65660, -47460
105327, 68, 1009, 131, 5950, 74480, -54880
105347, 186, 1042, 151, -1610, 93940, -54250
105367, 110, 928, 127, -1470, 103390, -32130
105387, -8, 944, 114, 8190, 81830, 15820
105407, 33, 1000, 137, 21210, 65800, 19320
105427, 76, 1056, 139, 25130, 56770, -7700
105447, 61, 1044, 143, 19880, 53620, -17780
105467, 44, 1063, 145, 12320, 48860, -70
105487, -14, 960, 106, 7910, 44100, 29400
105507, 32, 859, 159, 4340, 54180, 53270
105527, 56, 930, 122, 5530, 42350, 48510
105547, 14, 1041, 116, 12880, 12320, 31850
105567, 71, 1054, 125, 16590, -2870, 21420
105587, 83, 921, 78, 11480, -4340, 14560
105607, 104, 1013, 106, 6650, -280, 18620
105627, 61, 1007, 93, 2310, 10640, 8050
105647, 114, 993, 121, 3430, 13020, 1680
105667, 86, 1021, 113, -980, 4690, 3780
105687, 70, 1009, 106, -3570, -2170, 9590
105707, 87, 1040, 135, 840, -2730, 8470
105727, 61, 991, 111, -5110, 6370, -1120
105747, 90, 955, 106, -8960, 8260, -1400
105767, 99, 1003, 87, 4270, 6370, -7350
105787, 93, 986, 114, 5040, 6090, -3500
105807, 78, 966, 106, 1610, 5110, 5250
105827, 109, 991, 109, -2100, 6930, 9800
105847, 63, 1005, 128, -2100, 10780, 14210
105867, 104, 981, 116, 770, 14000, 7770
105887, 129, 970, 115, 0, 12950, 9170
105907, 81, 1040, 138, -2100, 7070, 6160
105927, 96, 1008, 126, 210, 4340, 3920
105947, 109, 974, 115, 3430, 2100, 9450
105967, 125, 990, 123, 5950, 980, 350
105987, 107, 1008, 131, 4620, -2870, -1120
106007, 87, 952, 106, 5110, -4480, -140
106027, 116, 997, 123, 6300, -2310, -4060
106047, 69, 1033, 129, 7070, 4270, -16310
106067, 92, 1007, 115, 6580, 5950, -8260
106087, 73, 987, 106, 5530, 4830, -210
106107, 93, 1004, 126, 1820, 2590, 6230
106127, 93, 997, 121, 3220, 2030, 3290
106147, 79, 1006, 122, 7700, 4620, -5740
106167, 75, 983, 104, 8260, 6300, -9590
106187, 56, 1005, 105, 7980, 9380, -8050
106207, 85, 967, 99, 4830, 8960, 210
106227, 104, 966, 107, 1470, 8050, 5250
106247, 85, 973, 135, 1820, 4480, 420
106267, 85, 1013, 110, 10570, 7420, -3500
106287, 73, 1016, 106, 14420, 11900, -6860
106307, 53, 983, 94, 7770, 11550, -8260
106327, 85, 999, 130, -3080, 12460, -12320
106347, 49, 1027, 99, -2170, 15540, -11970
106367, -38, 991, 138, 3920, 15820, -6020
106387, 86, 1054, 97, 15190, 15400, -9030
106407, 66, 992, 29, 22750, 12460, -6510
106427, 16, 989, 148, -2240, 19530, 630
106447, 13, 1067, 95, -2590, 18900, -420
106467, 39, 957, 135, -4270, 18410, 9870
106487, 35, 1011, 117, -8540, 15750, 23940
106507, 64, 1000, 116, 7840, 12600, 16030
106527, 77, 988, 94, 8750, 9730, 3850
106547, 45, 940, 115, 7630, 8190, -4830
106567, -2, 999, 84, 3290, 8680, -14980
106587, 83, 987, 65, -1820, 18200, -26390
106607, 16, 986, 127, -17850, 29540, -24850
106627, 30, 940, 190, -32760, 32900, -24780
106647, 24, 1045, 207, -33740, 22960, -22820
106667, 0, 1030, 165, -11480, 12880, -10920
106687, 11, 926, 117, -4760, 6650, 13720
106707, -22, 968, 151, -14700, 11760, 23310
106727, 44, 954, 201, -27300, 15540, 1330
106747, -33, 994, 124, -37170, 13160, -17570
106767, -26, 1067, 180, 3290, 15540, -28840
106787, -30, 1046, 200, 10710, 30590, -39900
106807, -35, 973, 190, -1540, 28980, -20090
106827, -46, 993, 152, -490, 29120, 3220
106847, -19, 1018, 157, 7840, 33880, 8890
106867, -14, 936, 149, -3640, 27580, 6580
106887, -41, 963, 183, -11410, 17220, -3010
106907, -68, 1047, 239, -9520, 17360, -25340
106927, -49, 984, 162, 5180, 20930, -18830
106947, -50, 983, 136, 16940, 25480, 13860
106967, -65, 1013, 178, 9380, 30590, 21910
106987, -38, 1002, 172, -140, 28700, 15050
107007, -34, 949, 142, -4200, 24640, 19670
107027, 59, 1006, 154, -12950, 35770, 16030
107047, -66, 880, 59, -22400, 64890, -7210
107067, -386, 1060, 284, 25550, 203070, 20230
107087, -147, 999, 218, 139230, 409990, 57120
107107, -97, 1070, 91, 118300, 325290, 35490
107127, -191, 1061, 90, 76790, 161000, 16940
107147, -67, 1013, 42, 62370, 105840, 32200
107167, 4, 911, 16, 11830, 61390, 140
107187, 22, 1009, 58, -6440, 46550, -6300
107207, -131, 1124, 169, 8120, 53900, -4480
107227, -64, 1005, -183, -15680, 60690, 7070
107247, -79, 1080, 68, -54390, 40950, 30940
107267, -15, 986, 8, -26670, 48370, 4130
107287, 20, 973, 34, -6510, 38850, 11690
107307, -4, 1028, 34, 13370, 21560, 26110
107327, -69, 1017, 67, 39410, 37800, 37520
107347, 48, 1049, 0, 24500, 59920, 27580
107367, 6, 974, 8, -20370, 36680, -5040
107387, -11, 995, 102, -33040, 31710, -9310
107407, -45, 1020, 121, -13580, 42420, -10010
107427, -40, 1033, 50, -15890, 44310, -8470
107447, 39, 940, 10, -9170, 59710, 2590
107467, 43, 985, 6, 3150, 65520, 9870
107487, -73, 968, 111, -2730, 72310, 7210
107507, -26, 1002, 95, -10150, 56980, 6580
107527, -32, 928, -4, -10990, 42280, 19040
107547, 54, 926, 17, -22750, 34860, 32760
107567, 57, 852, -40, -19530, 37310, 27020
107587, -81, 983, 36, -1820, 45500, -6790
107607, -134, 1131, 125, 49770, 42980, 560
107627, -121, 1109, 172, 52780, 40670, -9450
107647, 92, 1051, 23, 18550, 49210, -18480
107667, 112, 982, -91, 22540, 55580, 19810
107687, 70, 1022, 41, 50680, 71050, 51310
107707, -1, 1010, 0, 34370, 67620, 33950
107727, -8, 964, -60, 7000, 37940, 9590
107747, -40, 1046, 50, -23170, 9520, 11620
107767, 13, 1003, -33, -37100, 11270, 2800
107787, 46, 966, 8, -42350, 6580, -5810
107807, 69, 928, -34, -38990, 6440, -14700
107827, -10, 1046, 64, -21980, 18900, -26530
107847, -17, 1073, 35, -4970, 15960, -22330
107867, -16, 1044, 20, -4200, 4620, -12600
107887, 63, 979, -3, 1400, -4620, -1470
107907, 26, 940, -5, -6510, 17710, -5810
107927, -9, 1024, 7, 5670, 56980, -15050
107947, -46, 1069, 91, 17850, 86310, -24430
107967, -61, 1029, 55, -5950, 88550, -24150
107987, 24, 975, -56, -26040, 68670, -18060
108007, -115, 1014, 94, -15960, 62370, -22820
108027, -114, 1020, 139, -17780, 53340, -40040
108047, -139, 1006, 93, -14630, 41720, -36680
108067, -55, 964, -56, 5250, 34860, -5250
108087, -156, 1076, 35, 7630, 34580, 2170
108107, -84, 974, 59, -1750, 37310, 2660
108127, -51, 918, 10, -1260, 30170, 13650
108147, -80, 986, 10, 3220, 31010, 9170
108167, -36, 934, 41, 2030, 40530, 7980
108187, -142, 1047, 121, -6790, 55230, -1470
108207, -110, 973, 90, -9730, 42490, -9940
108227, -137, 989, 120, 0, 35490, 1330
108247, -145, 1074, 190, 2100, 31430, -700
108267, -137, 1070, 87, 3710, 11620, 1190
108287, -85, 993, 18, 14280, 3360, 15540
108307, -88, 988, 88, 11690, 6160, 17430
108327, -81, 996, 51, 8890, 13650, 14210
108347, -71, 1005, 26, 9870, 13020, 11410
108367, -63, 997, 34, 7490, 5320, 12670
108387, -69, 1009, -25, -420, -9660, 8120
108407, -55, 999, -15, 1820, -24010, 12040
108427, -69, 995, 62, 1820, -7840, 9450
108447, -63, 977, 22, 2240, 3640, 5950
108467, -89, 1048, 9, 2590, 17850, -70
108487, -77, 1020, 65, 8260, 30450, 980
108507, -51, 965, 36, 3990, 25970, 2380
108527, -42, 961, 61, 3640, 8190, 6090
108547, -46, 992, 5, 7560, -3780, 9310
108567, -46, 981, 46, 9380, -9100, 8470
108587, -73, 1000, 85, 5320, -4620, 7140
108607, -72, 1026, 24, 6440, 630, 6930
108627, -53, 1019, 47, 12600, -1540, 9590
108647, -29, 992, -12, 8610, -4410, 7280
108667, -78, 1041, 66, 70, -2730, -6580
108687, -66, 1008, 40, -6300, -5530, -13650
108707, -70, 1002, 0, -3290, -25760, 1750
108727, -73, 1012, 10, 2310, -28280, 11200
108747, -54, 1003, 21, 5880, -9940, 12740
108767, -51, 1002, 28, 5670, 4760, 16800
108787, -72, 1012, 55, 4830, 3010, 9310
108807, -58, 1002, 38, 1120, 910, 4690
108827, -47, 995, 49, 1890, -4550, 8120
108847, -41, 996, 15, 2030, -7140, 12040
108867, -41, 1026, 26, 1540, -10500, 14350
108887, -32, 1013, 22, 3780, -6300, 13510
108907, -17, 1015, 38, 7000, 350, 7560
108927, -4, 1001, 65, 11480, 2590, 12740
108947, -10, 997, 28, 10150, -5320, 15890
108967, -6, 985, 39, 3010, -15400, 13160
108987, -1, 993, 4, -6230, -15120, 10290
109007, -21, 1014, 31, -9100, -9310, 9240
109027, -1, 995, 18, -2730, -3920, 3220
109047, -19, 1032, 21, 2730, -8890, 1540
109067, 1, 996, 34, 7350, -14420, 560
109087, -2, 994, 36, 8120, -14140, 2170
109107, -27, 1023, 20, 6160, -17920, -980
109127, -22, 1003, 8, 4690, -16450, -5740
109147, -23, 997, 33, 1260, -8750, -4200
109167, -34, 1008, 12, 4060, -7840, -630
109187, -6, 976, 10, 7840, -14560, -140
109207, -28, 997, 27, 12740, -15190, 5670
109227, -15, 1004, 6, 16030, -11340, 12040
109247, -25, 998, 19, 10500, -8050, 6720
109267, -3, 996, 20, 7490, -840, 2240
109287, 19, 1018, -13, -350, 7980, -910
109307, -48, 964, 4, -5950, 10010, -3010
109327, 6, 970, -19, -560, 21000, 3570
109347, -123, 964, 23, 8120, 43890, 15190
109367, -12, 1005, 52, 18270, 44940, 21840
109387, -20, 984, 37, 8330, 38570, 13300
109407, 51, 1008, -10, 8330, 19320, -3570
109427, 46, 1000, -2, 8820, 13790, -6090
109447, -8, 988, 32, 6580, 9730, -5460
109467, -5, 1006, 1, 7350, 19740, 7280
109487, 3, 1021, 22, 3640, 20860, 12670
109507, -17, 1064, -21, 3220, 27020, 24990
109527, -38, 1041, -21, 6020, 16100, 9310
109547, -23, 968, -12, 7630, 8610, -5320
109567, 13, 984, 3, 9240, 14910, -12880
109587, -19, 999, -27, 8260, 30240, -10360
109607, -43, 1003, -49, 7210, 35700, -14770
109627, -31, 988, 3, 11130, 34720, -24080
109647, -34, 963, -7, 12460, 28140, -30660
109667, -54, 998, 9, 8120, 21140, -37520
109687, 20, 994, -28, 3570, 24850, -27090
109707, -202, 978, 108, 2870, 47250, -3570
109727, 31, 1016, -132, 10080, 71120, -31500
109747, -313, 767, -155, -4060, 68180, 1960
109767, -25, 1087, -44, 4480, 77490, -11410
109787, -152, 1045, -25, 1890, 66780, -26670
109807, -61, 1020, -78, 5110, 68880, -37380
109827, 141, 1036, -47, 10780, 79590, -43190
109847, -76, 1033, -51, 9170, 115220, -5250
109867, -154, 1016, -120, 210, 147000, 34300
109887, -104, 1037, -77, -1540, 151200, 41440
109907, -172, 1049, 76, -910, 149940, 38430
109927, -35, 985, 0, -10780, 131320, 18200
109947, -66, 922, -56, -30310, 114730, -15820
109967, -88, 973, -39, -32480, 113400, -27300
109987, -92, 1026, -22, -24780, 102550, -20930
110007, -17, 1023, -65, -33600, 84560, -21210
110027, -29, 966, -59, -38080, 87360, -15260
110047, -19, 915, -38, -13720, 106190, -4270
110067, -65, 1015, -66, 8680, 137620, 14350
110087, -79, 1012, -62, 23520, 171780, 39550
110107, -141, 1047, -28, 25550, 188650, 52570
110127, -101, 999, -7, 21560, 187810, 34860
110147, -89, 951, -14, 14420, 171360, -13930
110167, -93, 992, -45, 22190, 156030, -26950
110187, -44, 1041, -69, 24920, 143640, -24850
110207, 47, 993, -91, 16940, 140420, -21070
110227, -54, 1001, -63, 18900, 145530, 1260
110247, -26, 1020, -117, 16590, 123620, 19530
110267, -51, 1037, -106, 3360, 102970, 17010
110287, -70, 1021, -104, -7630, 81620, 280
110307, -38, 997, -71, -25270, 58170, -23450
110327, -33, 957, -72, -39970, 44870, -33880
110347, -40, 1009, -53, -42280, 48440, -18690
110367, -47, 1026, -50, -33810, 61950, 6020
110387, -59, 999, -23, -27090, 66080, 19880
110407, -31, 956, -29, -23310, 61600, 17150
110427, 5, 984, 6, -18130, 56350, 8260
110447, -66, 967, -23, -5530, 65170, 13370
110467, -13, 1034, -57, 1540, 66430, 24360
110487, -7, 1031, -25, 840, 54810, 15190
110507, -32, 992, -13, 4970, 48930, 3570
110527, -22, 997, 0, 6090, 42140, 5950
110547, -33, 948, -29, 6650, 33040, 10990
110567, -3, 976, -23, 8470, 28420, 14560
110587, -8, 1009, -39, 3010, 32410, 19320
110607, 19, 1036, -41, -2100, 33460, 22330
110627, 8, 1017, -18, -6160, 26110, 11130
110647, -9, 1011, -2, -8750, 16800, -1540
110667, 17, 999, -13, -8190, 10290, -3500
110687, -38, 999, -30, -5810, 4480, -2730
110707, -1, 1007, -46, 3220, 7840, 1890
110727, 2, 1001, -12, 4410, 8960, 3850
110747, 18, 994, 1, -2310, 9870, 8050
110767, 9, 981, -15, -2240, 8750, 11340
110787, 24, 998, -25, 3570, 5180, 10360
110807, 18, 1031, -25, 11550, 10710, 6370
110827, 3, 1009, -10, 9240, 10920, 2450
110847, 16, 1001, -35, 6300, 3780, -4970
110867, -10, 985, -2, 6090, -1750, -9030
110887, -13, 978, -11, 5880, 700, -6020
110907, -17, 1009, -4, 5530, -840, -3920
110927, -5, 1024, -8, 1260, 490, 1330
110947, -3, 1016, -8, -1750, -70, 350
110967, 0, 995, -5, -4060, -2240, 630
110987, -10, 985, -4, -3150, -5040, 2870
111007, -12, 991, -12, 2800, -7350, 5460
111027, -9, 1004, -30, 8050, -6230, 3990
111047, 2, 1020, -40, 8330, -6300, 1190
111067, 11, 1014, -29, 3780, -6650, 280
111087, 9, 992, -14, 840, -6020, 0
111107, 5, 998, -24, -210, -7910, 910
111127, 9, 1015, -29, 3430, -7980, 3920
111147, -3, 1015, -24, 9170, -6650, 1890
111167, 10, 999, -22, 7700, -9450, 1400
111187, -9, 997, -14, 4200, -15050, 280
111207, 4, 1003, -53, 980, -14140, 6090
111227, -18, 1000, -15, 1050, -10710, 9940
111247, -2, 1000, -30, -1400, -6230, 4830
111267, 15, 1005, -21, -4900, -8050, -1680
111287, -22, 1005, -10, -5320, -8120, -700
111307, 5, 1004, -21, -1820, -5530, 2170
111327, -15, 1001, -25, 840, -6020, -6020
111347, -5, 1014, -21, 210, -8050, -9730
111367, -14, 1010, -19, -770, -10500, -9170
111387, 1, 984, -12, 210, -12670, -7630
111407, 9, 994, -5, -980, -11620, -4900
111427, -13, 994, -1, 490, -4690, 5600
111447, 21, 990, -142, 5810, -1470, 7210
111467, 3, 1002, -17, -1680, 1960, 7210
111487, -12, 1003, -15, -1190, -2030, 15610
111507, -7, 998, -10, -3360, -2310, 17710
111527, 8, 999, -12, -7630, -1680, 15960
111547, 9, 997, -4, -12180, -1750, 14140
111567, 28, 1023, -11, -14560, -840, 7490
111587, 36, 1014, 14, -16520, -2240, 4760
111607, 35, 999, 23, -19390, -3290, 8190
111627, 38, 888, 215, -21210, -2730, 9030
111647, -12, 1042, -28, 11550, 1750, -840
111667, 29, 1036, -17, 10500, 350, -5180
111687, 49, 988, 50, -5740, -630, 5880
111707, 7, 995, 56, -12670, -2520, 6580
111727, 18, 1002, 47, -4620, -2240, 10010
111747, 1, 996, 17, 11480, -2520, 12250
111767, -5, 1014, -20, 27790, -1890, 5810
111787, -6, 998, -7, 20230, -420, 3500
111807, 32, 1015, 27, 8750, 840, 350
111827, 31, 992, 7, 9100, -2590, -18900
111847, 21, 995, 22, 3290, -4060, -22540
111867, 3, 973, 28, -8890, -1540, -14560
111887, 1, 989, 26, -7630, -560, -14560
111907, -8, 976, 7, -2450, 280, -14980
111927, -13, 1009, 18, -5880, 4410, -6230
111947, 9, 1003, 25, -11410, 4620, -5180
111967, -36, 993, 42, -11340, 3990, -210
111987, -10, 1005, 39, -8470, 8260, 8260
112007, -12, 1022, 32, 2590, 9660, 11270
112027, -8, 990, 41, 6020, 5530, 1400
112047, -4, 1014, 31, 8680, 210, -9310
112067, -15, 1018, 17, 11480, 2450, -13300
112087, -16, 1017, 5, 12110, 6440, -4970
112107, -9, 1016, 15, 11270, 11760, 3570
112127, -3, 1013, 16, 12390, 14280, 980
112147, -22, 995, 10, 16800, 12950, -2800
112167, -19, 988, 10, 14210, 10920, 2240
112187, -18, 998, -5, 14070, 12390, 7070
112207, -11, 1015, -17, 17080, 16030, 15120
112227, -15, 1007, -23, 9030, 15680, 20720
112247, -20, 984, 30, -6790, 7490, 13370
112267, -9, 1010, 4, -10920, 3710, 7350
112287, 2, 1005, 8, 1120, 3850, 9030
112307, 7, 1020, 9, 3710, 2520, 7000
112327, 9, 1005, 1, 2520, 1260, 5110
112347, -5, 1007, 5, 5390, 1750, 4620
112367, 0, 1017, -8, 6020, 3640, 2590
112387, 3, 1013, -4, 3990, 630, -2170
112407, 11, 1014, 7, -3990, -3080, -7140
112427, 11, 1018, 8, -8750, -5530, -6930
112447, -2, 1014, -1, -4410, -5530, -5390
112467, -27, 982, 27, 280, -4270, -5460
112487, -10, 1011, -4, 1050, -3710, -2800
112507, -17, 1005, 13, -1820, -3920, 4830
112527, -13, 1018, -3, -700, -5670, -140
112547, -39, 989, 30, 8400, -7350, -7910
112567, -34, 1035, 31, 10780, -8260, -14700
112587, 0, 1023, -23, 11060, -15610, -16450
112607, -44, 960, -38, 5530, -30520, -12040
112627, -63, 971, -7, 2870, -24640, -10570
112647, -12, 1034, 12, 1400, -6020, -18760
112667, -30, 1009, 11, 840, 2870, -20300
112687, -66, 1006, -5, 3710, 5460, -10850
112707, -28, 1047, 30, 9660, 7980, -3010
112727, -58, 964, 9, 3150, 9240, 980
112747, -86, 975, -11, -12530, 30100, 8260
112767, -79, 1044, 7, -11830, 25900, 9450
112787, -9, 1049, 73, -7700, 16380, 5180
112807, -73, 1021, -23, -2450, 20440, -12950
112827, -104, 1012, -14, -3570, 60200, -19950
112847, -37, 1037, 13, 3780, 48090, -9380
112867, -60, 984, 7, 15470, 8820, -2170
112887, -39, 1027, 27, 14560, 9240, 10010
112907, -51, 973, -3, 18410, 9590, 22050
112927, -108, 1091, 117, 24920, 16380, 23170
112947, 73, 978, -278, 31220, 22330, 21490
112967, -48, 877, -147, -52500, 6440, -22400
112987, 70, 1323, 71, -51310, 37030, -60410
113007, -151, 950, -30, 53060, 61110, -60060
113027, -118, 899, -178, 11970, 24500, 31920
113047, -355, 626, -231, -490, 770, 29400
113067, -161, 774, -232, 31640, 55930, -3150
113087, 37, 1428, 584, 73430, 105280, -81760
113107, -262, 1176, 4, 90720, 147420, -137690
113127, -206, 1044, -46, -11760, 200900, -137900
113147, -358, 900, 80, -81060, 132650, -59500
113167, -219, 960, 4, -43050, 106120, -48510
113187, -252, 956, 5, -43190, 74480, -54460
113207, -270, 1037, -20, -70490, 50960, -51870
113227, -301, 1040, 25, -85960, 34230, -52920
113247, -334, 961, 78, -68250, 27650, -46550
113267, -266, 985, 91, -34440, 26460, -20580
113287, -317, 966, 58, -13580, 33600, 9590
113307, -319, 979, 13, -13370, 32060, 33110
113327, -329, 927, 7, -9800, 22190, 46200
113347, -429, 1002, 107, 4270, 40040, 36890
113367, -287, 944, -5, 6580, 90860, 19740
113387, -207, 948, 39, 10570, 80500, 24430
113407, -323, 987, 157, -5600, 87990, 37380
113427, -180, 930, -96, -24220, 64750, 61460
113447, -502, 963, 77, -27160, 72520, 65310
113467, -78, 1077, -6, -12320, 79380, 47670
113487, 27, 941, -163, -18550, 73920, 44660
113507, -183, 1003, 39, -44520, 103740, 46060
113527, -155, 967, 101, -39410, 53410, 39760
113547, 37, 912, -120, -26880, 37240, 43960
113567, -67, 1029, 26, -21980, 70700, 55440
113587, -136, 980, 3, -8820, 96460, 69580
113607, -91, 1022, 12, -7560, 126910, 73570
113627, -45, 999, 0, 6020, 101360, 62580
113647, -127, 1337, -325, 20860, 52500, 19390
113667, -85, 986, 86, -26530, 14000, -1750
113687, -33, 919, 38, -23520, 34230, 24570
113707, -74, 1021, -30, -17010, 25760, 4200
113727, -39, 1042, -44, -34160, 35350, -20440
113747, -53, 1033, 78, -60900, 25970, -25970
113767, -104, 945, 278, -98770, 24850, -34790
113787, -145, 865, 279, -149800, 52220, -38010
113807, -148, 1024, 276, -126070, 61810, -3570
113827, -122, 978, 264, -46480, 34580, 15330
113847, -57, 921, 118, 53410, 30100, 6930
113867, -66, 960, 140, 70560, 29960, 21350
113887, -207, 859, 358, 6300, 28070, 17360
113907, -101, 1021, -11, -4690, 86730, 69090
113927, -80, 979, 279, -15890, 40670, 44870
113947, -62, 928, 367, -111930, 31640, 35280
113967, -50, 929, 308, -101500, 19600, 30380
113987, -41, 950, 244, -34860, 14280, 31920
114007, -50, 1021, 300, 6930, 11900, 29050
114027, -43, 996, 277, 700, 12180, 20930
114047, -31, 963, 290, -10990, 1260, 19880
114067, -17, 939, 325, -19250, -9170, 22610
114087, -13, 946, 322, -22260, -6930, 30870
114107, 39, 1002, 326, -24640, -2800, 34230
114127, 11, 983, 339, -20650, 2520, 29190
114147, 61, 986, 282, -5600, 5390, 21350
114167, 10, 988, 302, 20020, 6580, 20160
114187, 30, 959, 333, 13370, 1540, 20160
114207, 8, 881, 425, -21770, -4480, 17290
114227, 52, 931, 467, -32200, -2380, 21210
114247, 124, 951, 364, -11200, -1400, 45500
114267, 48, 932, 261, 44380, 3010, 36610
114287, 43, 945, 282, 61740, 11970, 30590
114307, 65, 973, 263, 47180, 7840, 29750
114327, 117, 974, 287, 27580, -3430, 23590
114347, 148, 985, 256, 23380, -6370, 22680
114367, 80, 987, 252, 21630, -490, 16100
114387, 98, 927, 265, 22610, 19460, 7280
114407, 65, 993, 225, 31010, 24710, 1260
114427, 145, 905, 241, 28840, 39340, 2870
114447, 104, 916, 183, 14140, 23590, -770
114467, 116, 993, 229, 21700, 32270, 6230
114487, 81, 1009, 257, 16170, 53620, 16380
114507, 62, 983, 239, 8820, 43120, 8190
114527, 11, 993, 277, 4340, 26320, -4060
114547, 62, 965, 225, 15610, 8260, -4480
114567, 108, 966, 170, 26320, -8190, 2800
114587, 86, 989, 217, 31220, -11690, 350
114607, 41, 995, 227, 28000, -6580, -10220
114627, 105, 963, 190, 7210, -6510, -6300
114647, 75, 982, 194, 910, -8190, 6160
114667, 82, 969, 207, -13860, -6510, 3990
114687, 64, 974, 193, -18270, -4340, 420
114707, 55, 971, 203, -8120, -5950, -3010
114727, 67, 959, 185, 4060, -10570, -2800
114747, 71, 988, 216, 18690, -16870, 490
114767, 81, 991, 200, 28840, -12530, 2310
114787, 88, 1013, 201, 24780, -3990, 4760
114807, 63, 984, 165, 11060, 1400, 4060
114827, 50, 949, 142, 11690, -3360, 2940
114847, 0, 980, 133, 26740, -14210, 2240
114867, 80, 1013, 173, 35700, -14840, 4620
114887, 95, 1023, 134, 40810, -9940, 13370
114907, 25, 1020, 132, 33460, -15120, 16310
114927, 106, 993, 120, 20090, -20580, 5530
114947, 202, 992, 106, 14700, -17710, 1330
114967, 58, 985, 132, 16520, -6860, 9940
114987, 60, 986, 144, 15470, 3010, 6370
115007, 153, 1008, 124, 9870, -3150, 1050
115027, 115, 990, 113, -1750, -15890, -2310
115047, 96, 981, 104, -5460, -4060, -7280
115067, 84, 1041, 162, -3500, 4480, -6790
115087, 117, 1010, 115, 1260, 9940, -910
115107, 82, 989, 144, 700, 21280, 6230
115127, 86, 977, 125, -10920, 20860, 8890
115147, 115, 1010, 170, -12320, 15820, 16310
115167, 108, 983, 106, -7070, 5040, 19810
115187, 124, 973, 98, -9100, 6160, 17360
115207, 108, 984, 127, -10920, 12320, 5110
115227, 21, 957, 170, -18200, 18620, -3150
115247, 82, 1000, 126, -8960, 23940, -2940
115267, 97, 985, 125, 10500, 16450, -8890
115287, 98, 980, 124, 26810, 7140, -12950
115307, 53, 1014, 123, 35910, 10990, -22610
115327, 120, 965, 88, 34580, 26250, -21700
115347, 81, 969, 73, 29120, 57610, -20370
115367, 0, 1014, 104, 18760, 78750, -35000
115387, -17, 1037, 117, 28420, 87080, -43750
115407, -24, 973, 120, 44310, 81760, -30590
115427, -19, 986, 75, 33180, 93240, -13930
115447, 65, 1038, 42, -19110, 129080, -28420
115467, -7, 1002, 83, -21000, 105210, -9590
115487, -9, 1028, 86, -11760, 116900, -16240
115507, 12, 1029, 166, -2310, 112630, -18830
115527, -109, 1039, 93, -10220, 85750, 18130
115547, -85, 989, 144, -41720, 78750, 47880
115567, -39, 955, 6, -55860, 96460, 49980
115587, -62, 1000, 150, -47600, 119210, 56420
115607, -100, 960, 112, -25130, 131320, 55720
115627, 70, 981, 141, -17220, 156730, 39760
115647, 147, 1000, 253, -4690, 154070, 16730
115667, -66, 964, 159, 2870, 115850, 22190
115687, -155, 960, 123, -13860, 92960, 28280
115707, 17, 963, 228, -560, 104790, 13300
115727, -66, 890, 45, -13160, 94780, 6930
115747, 126, 901, 17, -9030, 108710, 10150
115767, 74, 932, 148, 3500, 117110, 2800
115787, -34, 984, 199, 19670, 124530, 3220
115807, -43, 1051, 169, 8750, 110950, 12600
115827, -17, 973, 275, 10150, 106120, 10080
115847, -21, 1011, 200, 11970, 95340, 1330
115867, -39, 884, 123, -3430, 95060, 1470
115887, -26, 1019, 254, 7420, 104230, 9450
115907, -21, 1004, 201, 7560, 107450, 7000
115927, -67, 1016, 261, 8260, 97370, 19740
115947, -32, 1055, 258, 8610, 90580, 15610
115967, -68, 1036, 289, 9660, 96530, 7420
115987, 97, 939, 97, 8540, 70490, 4130
116007, -47, 843, 206, 7070, 65380, 3430
116027, -28, 956, 154, 24500, 70070, 8680
116047, -2, 961, 68, 4480, 105700, 2520
116067, 27, 917, 169, -1960, 100170, 11620
116087, -54, 1031, -185, -10290, 106540, 6720
116107, -329, 961, 118, -6510, 97090, -2380
116127, -116, 1039, 85, 39340, 92680, 280
116147, -45, 1009, 17, 31500, 98910, -9240
116167, -40, 996, 61, 27160, 75600, 4410
116187, -153, 1022, 65, 36540, 43890, 28350
116207, -106, 997, 48, 34510, 40600, 26460
116227, -72, 998, 51, 22120, 43260, 9450
116247, -75, 993, 44, 8120, 42280, 70
116267, -58, 1025, 80, 70, 41580, -7700
116287, -58, 982, 50, -420, 37870, -10290
116307, -69, 962, 51, 7070, 21490, 4830
116327, -80, 998, 79, 4480, 17710, 18200
116347, -53, 999, 72, -8050, 30520, 17990
116367, -33, 976, 67, -16450, 41720, 24990
116387, -41, 997, 96, -17780, 45570, 36400
116407, -5, 969, 83, -15540, 46830, 38500
116427, -6, 972, 78, -1190, 30870, 35280
116447, -27, 982, 52, 6650, 19460, 26460
116467, -27, 1009, 106, -3290, 15890, 10640
116487, -33, 1038, 137, -12950, 15330, 1120
116507, -13, 1002, 132, -17150, 19180, 13790
116527, -21, 993, 113, -25200, 16940, 25340
116547, 19, 982, 136, -24360, 12530, 27020
116567, -24, 992, 104, -17430, 6020, 21490
116587, -39, 1008, 114, -2240, 490, 8750
116607, 19, 969, 63, 12740, -8890, -11480
116627, 198, 1203, -92, 20930, -11130, -18620
116647, -104, 1080, 203, 8050, 4340, -14770
116667, -1, 1011, 183, -44170, 35700, -26530
116687, -52, 971, 121, -8260, 28770, -19460
116707, -89, 949, 128, -8470, 13090, -5040
116727, -32, 955, 138, -4970, 4830, -4760
116747, -57, 924, 132, -9030, 2800, -14210
116767, -38, 998, 163, -2940, -2870, -11970
116787, -46, 1002, 153, -420, -2800, -4480
116807, -31, 983, 149, -5040, 560, 1120
116827, -64, 940, 117, -5600, 5740, 770
116847, -23, 961, 111, -630, 8260, -3010
116867, -55, 1000, 130, 70, 4340, -16240
116887, -12, 1028, 143, -280, -700, -10920
116907, -68, 1047, 178, -4410, -2940, -4760
116927, -67, 1055, 189, -4060, -5600, -560
116947, -41, 1003, 166, 2590, -5390, -8820
116967, -90, 998, 161, 2380, -11410, -7350
116987, -106, 1022, 177, 1890, -10500, -10010
117007, -93, 972, 153, 2590, -7560, -560
117027, -114, 998, 168, 2310, -4970, 7280
117047, -77, 996, 164, 3780, 140, -3360
117067, -104, 1025, 101, 7280, 2240, -910
117087, 3, 867, 222, 11410, 1330, 11200
117107, -102, 980, 137, 5740, -3360, 11970
117127, -34, 928, 149, 5530, -3570, 24220
117147, -77, 884, 235, 5670, -2870, 28630
117167, -77, 958, 136, 2030, -980, 11480
117187, -75, 1046, 177, 5040, 2940, -17920
117207, -112, 1069, 162, 6090, 4060, -13650
117227, -43, 989, 196, -1960, 1680, 5950
117247, -77, 1003, 160, 2590, -4830, 1540
117267, -80, 1005, 170, 7840, -1330, -6650
117287, -82, 1003, 139, 6580, 3150, -8050
117307, -89, 991, 147, 2520, 1470, 1750
117327, -61, 1008, 132, 4690, -140, 2520
117347, -64, 980, 131, 7210, 910, -490
117367, -47, 983, 132, 4760, 1750, 1960
117387, -58, 959, 121, 5040, 490, 1330
117407, -48, 996, 137, 4340, -700, 1540
117427, -63, 979, 132, 4410, -2030, 420
117447, -32, 1000, 146, 5950, -2520, -910
117467, -70, 1003, 140, 8050, -210, -8400
117487, -46, 997, 142, 7070, -4270, -4760
117507, -45, 942, 119, 5530, -9240, 1190
117527, -87, 1009, 130, 6860, -7000, -7000
117547, -105, 1024, 126, 8540, -6440, -16030
117567, -84, 1000, 128, 7140, -16310, -9450
117587, -79, 979, 123, 5250, -16240, -2030
117607, -73, 974, 125, 4130, -10570, -140
117627, -98, 989, 128, 3920, -3150, -4270
117647, -93, 978, 124, 4270, 560, -4270
117667, -80, 981, 106, 4270, 350, -1820
117687, -93, 954, 112, 4060, -2520, -70
117707, -63, 979, 127, 1400, -3850, 3570
117727, -89, 1014, 109, 6510, -2310, -5600
117747, -50, 997, 94, 6370, -350, -7980
117767, -206, 1012, 177, 7000, 5460, -11410
117787, -107, 963, 91, 1540, -560, -1680
117807, -81, 1014, 137, 4830, -7350, 19880
117827, -125, 1016, 139, 3990, -3500, 8400
117847, -93, 986, 125, 7910, -1120, 2100
117867, -61, 996, 127, 5810, -210, 140
117887, -103, 975, 114, 70, -1610, 4200
117907, -92, 996, 125, 1260, -1330, 3010
117927, -131, 986, 114, -630, 210, 8470
117947, -118, 977, 117, -980, 700, 9310
117967, -87, 974, 118, 770, -140, 5810
117987, -77, 964, 112, 70, -1120, 5250
118007, -65, 936, 120, 1680, -1960, 3430
118027, -85, 992, 117, 3780, -2450, -4340
118047, -66, 994, 114, 3150, -350, -11760
118067, -66, 1010, 124, 2590, -1680, -12250
118087, -74, 1030, 145, 1750, -5180, -8540
118107, -92, 1009, 148, -2170, -6440, 4690
118127, -48, 959, 138, -1190, -9030, 28770
118147, -55, 953, 133, 2590, -8330, 31010
118167, -116, 984, 147, -2730, -8330, 19810
118187, -88, 985, 116, 1890, -8330, 5320
118207, -76, 1005, 122, -70, -5390, 7490
118227, -83, 989, 122, 490, -2170, 350
118247, -49, 983, 119, -490, -1120, 1820
118267, -74, 1021, 135, -770, -840, 1120
118287, -58, 1029, 129, -1330, -700, -1050
118307, -43, 998, 121, -1470, -1750, 3500
118327, -38, 1004, 126, -1750, -2660, 10010
118347, -34, 991, 93, -1050, -2450, 6090
118367, -55, 1034, 98, -2030, -2380, 5180
118387, -42, 968, 150, -5390, -2660, 3360
118407, -19, 1045, 108, -4690, -6860, 14630
118427, -69, 1064, 191, 5320, -9590, 31290
118447, -95, 1005, 221, 2380, -11970, 25340
118467, -105, 997, 163, 3360, -12040, 26880
118487, -7, 944, 131, 7770, -8820, 18130
118507, -28, 978, 156, 8330, -4690, 10780
118527, -46, 914, 136, 6650, 1400, 6160
118547, -80, 998, 151, 5530, 1890, 7000
118567, -61, 1001, 120, 2800, 9170, -3710
118587, -28, 984, 81, 1400, 8820, -5040
118607, -46, 1042, 113, 2660, 4760, 1750
118627, -34, 1029, 119, 630, 6510, -3710
118647, 10, 1005, 154, 1050, 6300, -2730
118667, 10, 967, 136, -3920, 2660, 12390
118687, -7, 1037, 162, -490, 2240, 11970
118707, 6, 990, 127, -1680, 4620, 6580
118727, -3, 1027, 152, 210, -420, 7420
118747, -17, 1071, 193, 2380, 1260, 2240
118767, 7, 1089, 196, 4480, 1750, 3010
118787, 59, 1024, 150, 9450, 630, 3920
118807, -43, 1020, 128, 12320, -420, -3780
118827, 25, 1066, 150, 10570, -5320, -2870
118847, 5, 1046, 148, 12950, -10780, -210
118867, 2, 1080, 185, 13300, -14490, 6090
118887, -51, 778, 56, 18480, -12950, -1610
118907, 95, 1134, 106, 18900, -6370, 2380
118927, 12, 985, 149, 11340, -8890, -14280
118947, 0, 953, 129, 11060, -19110, -3290
118967, 2, 997, 52, 10780, -19740, -5740
118987, 9, 985, 74, 7770, -18200, -10080
119007, -117, 820, 14, 7210, -16240, -17990
119027, -34, 1191, 110, 9870, -10290, 1050
119047, -95, 751, 56, 2730, -7280, -14840
119067, 30, 1009, 128, 3990, -8750, -910
119087, -95, 971, 166, 2380, -4340, -10850
119107, -33, 1052, 109, 2310, -8610, -16030
119127, -48, 926, 84, -490, -10710, -23660
119147, -20, 1321, 114, 630, -9450, -6790
119167, 2, 1192, 193, 70, -11410, -25200
119187, -138, 791, 64, 0, -8400, -26670
119207, -97, 1073, 51, 6300, -10780, -28210
119227, 89, 1127, 62, 7980, -9730, -32550
119247, -141, 597, 206, 8750, -3990, -4480
119267, 174, 807, 543, 6510, -6790, 16310
119287, -143, 829, -71, -1890, -7350, -6860
119307, -147, 1182, 100, 2240, -16590, -16240
119327, -49, 1118, 95, 5530, -15890, -44100
119347, -107, 1107, 102, 10360, -18060, -37800
119367, -85, 960, 57, 14140, -23730, -49420
119387, -94, 865, -78, 13020, -17150, -25200
119407, -161, 1096, 98, 12040, -10010, 2100
119427, -134, 985, 111, 8890, -9310, -2590
119447, -158, 919, 99, 9870, -13090, 4130
119467, -158, 846, 81, 10080, -12180, 5950
119487, -210, 962, 137, 3990, -11690, -4760
119507, -231, 967, 191, -1750, -13790, -6440
119527, -166, 1031, 190, -2380, -14910, -980
119547, -198, 1055, 63, -2100, -12740, -7770
119567, -177, 888, 2, 4550, -12810, 7840
