T [ms],AccX [mg],AccY [mg],AccZ [mg],GyroX [mdps],GyroY [mdps],GyroZ [mdps]
8798, -61, 8, 1021, 2520, -70, 1680
8818, -60, 8, 1023, 2450, -140, 1680
8838, -60, 9, 1022, 2450, -70, 1680
8858, -60, 10, 1021, 2520, -70, 1680
8878, -64, 9, 1021, 2520, 0, 1680
8898, -65, 8, 1021, 2450, -70, 1610
8918, -64, 9, 1020, 2450, -140, 1610
8938, -63, 8, 1023, 2450, -70, 1680
8958, -65, 8, 1021, 2450, -70, 1680
8978, -62, 8, 1021, 2450, -70, 1680
8998, -62, 10, 1021, 2520, -140, 1680
9018, -62, 10, 1022, 2520, -140, 1680
9038, -62, 10, 1021, 2520, -70, 1680
9058, -61, 9, 1021, 2520, -70, 1680
9078, -60, 7, 1023, 2520, 0, 1680
9098, -61, 8, 1022, 2450, -70, 1680
9118, -61, 8, 1023, 2450, -140, 1680
9138, -62, 10, 1020, 2450, -140, 1680
9158, -64, 8, 1022, 2520, -140, 1680
9178, -64, 9, 1021, 2520, 0, 1680
9198, -65, 8, 1021, 2450, 0, 1680
9218, -62, 7, 1020, 2450, -70, 1680
9238, -61, 8, 1023, 2450, -140, 1680
9258, -61, 8, 1021, 2450, -140, 1680
9278, -60, 9, 1021, 2520, -140, 1680
9298, -60, 8, 1021, 2520, -70, 1680
9318, -61, 8, 1022, 2450, 0, 1680
9338, -61, 9, 1021, 2450, 0, 1680
9358, -64, 7, 1021, 2520, -70, 1610
9378, -66, 8, 1021, 2520, -70, 1680
9398, -64, 7, 1021, 2520, -70, 1680
9418, -62, 8, 1023, 2450, -70, 1610
9438, -61, 8, 1021, 2450, 0, 1680
9458, -62, 9, 1021, 2520, -70, 1680
9478, -62, 8, 1021, 2520, -70, 1610
9498, -61, 7, 1022, 2520, -70, 1680
9518, -61, 8, 1019, 2450, 70, 1680
9538, -61, 8, 1021, 2450, -70, 1680
9558, -64, 7, 1021, 2450, -140, 1680
9578, -63, 7, 1020, 2450, -70, 1680
9598, -63, 7, 1021, 2450, -70, 1680
9618, -65, 8, 1020, 2450, -70, 1680
9638, -63, 9, 1021, 2520, -70, 1680
9658, -63, 9, 1020, 2520, -70, 1680
9678, -64, 8, 1019, 2450, -70, 1610
9698, -61, 9, 1024, 2450, -140, 1680
9718, -62, 8, 1020, 2450, -140, 1680
9738, -61, 7, 1022, 2380, 0, 1610
9758, -62, 8, 1020, 2380, 0, 1610
9778, -62, 8, 1021, 2450, -210, 1680
9798, -63, 8, 1019, 2450, -140, 1750
9818, -61, 8, 1021, 2450, 0, 1750
9838, -64, 8, 1020, 2450, 0, 1610
9858, -64, 8, 1021, 2450, -70, 1680
9878, -64, 9, 1021, 2450, -140, 1680
9898, -62, 8, 1022, 2450, -70, 1680
9918, -62, 7, 1019, 2450, 0, 1680
9938, -62, 7, 1021, 2450, -70, 1610
9958, -60, 8, 1019, 2450, -70, 1680
9978, -62, 9, 1020, 2450, -70, 1680
9998, -62, 8, 1018, 2450, -140, 1750
10018, -64, 9, 1021, 2450, -70, 1680
10038, -62, 10, 1022, 2450, -70, 1680
10058, -62, 10, 1019, 2450, -70, 1610
10078, -62, 8, 1021, 2450, -70, 1610
10098, -62, 9, 1021, 2450, -70, 1680
10118, -63, 9, 1021, 2450, -70, 1680
10138, -63, 7, 1021, 2450, -140, 1610
10158, -63, 8, 1020, 2450, -140, 1680
10178, -63, 9, 1018, 2520, -140, 1680
10198, -62, 9, 1020, 2450, -70, 1610
10218, -62, 8, 1019, 2450, -70, 1680
10238, -61, 9, 1021, 2450, 0, 1680
10258, -61, 7, 1022, 2450, 0, 1680
10278, -61, 7, 1019, 2450, 0, 1680
10298, -62, 8, 1020, 2450, -70, 1680
10318, -63, 9, 1024, 2450, -70, 1610
10338, -63, 9, 1020, 2450, 0, 1610
10358, -63, 8, 1021, 2450, 0, 1680
10378, -62, 7, 1022, 2450, 0, 1680
10398, -63, 8, 1021, 2450, 0, 1680
10418, -64, 7, 1022, 2450, 0, 1680
10438, -62, 8, 1020, 2450, 0, 1680
10458, -62, 8, 1019, 2450, -140, 1680
10478, -63, 9, 1022, 2520, -210, 1680
10498, -63, 7, 1021, 2520, -70, 1680
10518, -62, 8, 1020, 2520, 0, 1680
10538, -63, 8, 1021, 2450, 0, 1680
10558, -63, 8, 1019, 2450, -70, 1680
10578, -63, 8, 1022, 2450, -70, 1680
10598, -62, 9, 1019, 2450, -70, 1680
10618, -63, 8, 1022, 2450, -70, 1680
10638, -64, 9, 1019, 2450, -70, 1680
10658, -64, 9, 1020, 2450, -70, 1610
10678, -63, 8, 1022, 2450, -70, 1610
10698, -62, 9, 1020, 2450, -70, 1680
10718, -62, 9, 1020, 2450, -70, 1680
10738, -61, 8, 1021, 2520, -140, 1680
10758, -62, 8, 1021, 2520, -140, 1680
10778, -63, 8, 1021, 2520, -70, 1680
10798, -64, 8, 1021, 2520, 0, 1680
10818, -61, 9, 1020, 2520, 0, 1680
10838, -62, 9, 1020, 2450, -140, 1680
10858, -63, 7, 1019, 2450, -210, 1680
10878, -63, 7, 1022, 2450, -280, 1890
10898, -62, 8, 1021, 2450, -140, 1820
10918, -62, 8, 1021, 2450, -70, 1680
10938, -65, 8, 1020, 2450, -140, 1680
10958, -58, 8, 1023, 2450, -280, 1820
10978, -62, 7, 1020, 2590, -840, 1960
10998, -62, 8, 1021, 2730, -1190, 1890
11018, -62, 8, 1020, 2380, 140, 1680
11038, -60, 8, 1021, 2380, 140, 1680
11058, -63, 7, 1022, 2380, 70, 1610
11078, -63, 8, 1019, 2380, 0, 1610
11098, -63, 8, 1019, 2450, -140, 1680
11118, -138, -48, 1015, 2450, -210, 1680
11138, 476, -173, 1037, 1820, -700, 12530
11158, -79, -21, 1024, -840, 1890, 50960
11178, -56, 22, 1022, 1120, 630, 27090
11198, -59, -7, 1019, 1470, 140, 19600
11218, -62, 35, 1017, 1750, -70, 14070
11238, -59, 9, 1023, 1960, 0, 9100
11258, -64, 9, 1022, 2310, -70, 3150
11278, -65, 6, 1021, 2450, 280, 1330
11298, -66, 9, 1021, 2450, 560, 1050
11318, -64, 9, 1019, 2450, 280, 1400
11338, -63, 8, 1019, 2450, -140, 1610
11358, -61, 7, 1024, 2450, -70, 1610
11378, -62, 8, 1023, 2380, -70, 1610
11398, -61, 6, 1022, 2450, -70, 1680
11418, -62, 9, 1021, 2450, -140, 1680
11438, -63, 9, 1020, 2450, -140, 1680
11458, -62, 8, 1024, 2450, 0, 1680
11478, -63, 7, 1022, 2450, 70, 1610
11498, -63, 9, 1022, 2450, 70, 1610
11518, -63, 9, 1019, 2450, 70, 1540
11538, -64, 9, 1019, 2450, 0, 1540
11558, -64, 8, 1020, 2450, -70, 1680
11578, -63, 7, 1020, 2450, -70, 1680
11598, -62, 10, 1020, 2520, -140, 1680
11618, -61, 9, 1021, 2520, -70, 1680
11638, -61, 8, 1021, 2450, -70, 1680
11658, -60, 9, 1021, 2380, -70, 1610
11678, -60, 9, 1019, 2450, -70, 1610
11698, -63, 9, 1022, 2450, 0, 1610
11718, -64, 9, 1022, 2450, 0, 1610
11738, -64, 7, 1021, 2450, 0, 1610
11758, -65, 9, 1023, 2450, 0, 1610
11778, -63, 8, 1021, 2450, 140, 1540
11798, -63, 7, 1023, 2450, 0, 1610
11818, -61, 8, 1022, 2450, -70, 1610
11838, -62, 8, 1021, 2450, -70, 1680
11858, -61, 8, 1022, 2450, -70, 1680
11878, -62, 8, 1022, 2450, -140, 1680
11898, -64, 8, 1022, 2450, -140, 1680
11918, -65, 8, 1023, 2450, -70, 1680
11938, -64, 9, 1023, 2450, -70, 1680
11958, -64, 11, 1019, 2450, -70, 1680
11978, -65, 10, 1021, 2450, 0, 1680
11998, -64, 6, 1022, 2450, 0, 1680
12018, -63, 9, 1020, 2450, -70, 1680
12038, -60, 9, 1022, 2450, -140, 1680
12058, -62, 9, 1022, 2450, -140, 1680
12078, -62, 8, 1024, 2450, -70, 1610
12098, -61, 10, 1021, 2450, 0, 1610
12118, -63, 8, 1022, 2450, 70, 1610
12138, -62, 7, 1022, 2450, -140, 1680
12158, -64, 9, 1022, 2450, -140, 1680
12178, -65, 8, 1022, 2450, -70, 1680
12198, -65, 9, 1021, 2450, -70, 1680
12218, -63, 8, 1022, 2520, -70, 1680
12238, -62, 9, 1021, 2450, -140, 1680
12258, -62, 10, 1022, 2520, -210, 1680
12278, -60, 8, 1022, 2520, -140, 1680
12298, -61, 9, 1021, 2450, -70, 1680
12318, -60, 8, 1024, 2380, -70, 1680
12338, -61, 9, 1022, 2450, -70, 1680
12358, -62, 8, 1020, 2450, -70, 1680
12378, -64, 9, 1023, 2520, -70, 1680
12398, -65, 8, 1021, 2450, -70, 1680
12418, -66, 8, 1020, 2450, -70, 1680
12438, -66, 8, 1023, 2450, 0, 1680
12458, -63, 9, 1022, 2450, -70, 1680
12478, -64, 9, 1023, 2450, -140, 1680
12498, -60, 9, 1022, 2450, -140, 1680
12518, -61, 10, 1021, 2520, -140, 1750
12538, -61, 8, 1021, 2520, -70, 1750
12558, -63, 9, 1021, 2450, 0, 1680
12578, -62, 9, 1020, 2450, -70, 1680
12598, -62, 10, 1020, 2450, -70, 1680
12618, -65, 9, 1024, 2450, -70, 1680
12638, -62, 8, 1022, 2450, -70, 1680
12658, -64, 7, 1023, 2450, -70, 1680
12678, -65, 8, 1023, 2450, -70, 1680
12698, -63, 9, 1021, 2520, -140, 1680
12718, -65, 9, 1019, 2450, -140, 1680
12738, -64, 9, 1021, 2450, -140, 1680
12758, -61, 8, 1023, 2450, -70, 1680
12778, -60, 9, 1022, 2450, 0, 1680
12798, -61, 8, 1022, 2450, -70, 1680
12818, -61, 9, 1022, 2450, -140, 1680
12838, -63, 9, 1022, 2450, -140, 1680
12858, -64, 9, 1021, 2450, -70, 1680
12878, -64, 8, 1022, 2450, -70, 1680
12898, -63, 9, 1023, 2520, -70, 1680
12918, -65, 8, 1021, 2520, -70, 1680
12938, -63, 9, 1022, 2450, -210, 1750
12958, -63, 9, 1021, 2450, -140, 1750
12978, -61, 9, 1022, 2450, -70, 1680
12998, -63, 9, 1022, 2450, -70, 1680
13018, -61, 9, 1020, 2450, 0, 1680
13038, -61, 7, 1023, 2450, 0, 1610
13058, -62, 8, 1020, 2450, 0, 1680
13078, -65, 9, 1022, 2450, -70, 1680
13098, -63, 10, 1022, 2450, -70, 1680
13118, -65, 8, 1020, 2520, 0, 1680
13138, -65, 9, 1021, 2450, 0, 1680
13158, -63, 8, 1021, 2450, -70, 1610
13178, -66, 9, 1024, 2450, -70, 1680
13198, -64, 8, 1020, 2450, -70, 1680
13218, -64, 8, 1021, 2450, 0, 1680
13238, -62, 8, 1020, 2520, 0, 1680
13258, -59, 9, 1021, 2450, -140, 1680
13278, -59, 9, 1021, 2450, -140, 1680
13298, -60, 9, 1021, 2450, -140, 1680
13318, -61, 10, 1020, 2450, -70, 1680
13338, -65, 9, 1021, 2450, 70, 1680
13358, -66, 8, 1023, 2450, 0, 1680
13378, -66, 8, 1020, 2450, 0, 1680
13398, -66, 10, 1021, 2450, -70, 1680
13418, -64, 10, 1021, 2450, 0, 1680
13438, -67, 0, 1020, 2450, 70, 1680
13458, -62, 8, 1021, 2450, 210, 1610
13478, -62, 9, 1021, 2450, 0, 1680
13498, -60, 8, 1021, 2450, -70, 1750
13518, -62, 8, 1020, 2450, -140, 1680
13538, -62, 8, 1023, 2450, 0, 1680
13558, -62, 9, 1022, 2450, 70, 1680
13578, -65, 10, 1020, 2450, 210, 1610
13598, -66, 8, 1021, 2450, 280, 1680
13618, -65, 9, 1021, 2450, 0, 1680
13638, -67, 9, 1022, 2450, -140, 1750
13658, -64, 8, 1022, 2520, -210, 1820
13678, -63, 9, 1021, 2450, -140, 1820
13698, -63, 10, 1022, 2520, -70, 1750
13718, -60, 10, 1021, 2450, 70, 1680
13738, -61, 8, 1022, 2450, 140, 1610
13758, -60, 7, 1021, 2450, 280, 1610
13778, -61, 8, 1022, 2450, 140, 1610
13798, -65, 9, 1022, 2450, 0, 1680
13818, -65, 8, 1020, 2450, -70, 1750
13838, -67, 10, 1021, 2450, -140, 1750
13858, -69, -2, 1019, 2450, -210, 1680
13878, -63, 13, 1021, 2450, -350, 1750
13898, -63, 9, 1022, 2450, -280, 1750
13918, -61, 8, 1021, 2380, -140, 1680
13938, -62, 8, 1023, 2450, -140, 1680
13958, -60, 7, 1026, 2450, -210, 1750
13978, -61, 10, 1017, 2450, -210, 1680
13998, -62, 12, 1022, 2450, -210, 1680
14018, -60, 10, 1017, 2450, -70, 1680
14038, -63, 8, 1023, 2450, -70, 1680
14058, -63, 7, 1021, 2450, -210, 1680
14078, -64, 9, 1020, 2450, -420, 1820
14098, -67, 9, 1019, 2450, -350, 1750
14118, -65, 9, 1019, 2450, -280, 1750
14138, -64, 9, 1021, 2450, -70, 1680
14158, -62, 9, 1022, 2450, -140, 1680
14178, -62, 9, 1021, 2380, -140, 1680
14198, -61, 8, 1020, 2450, -140, 1680
14218, -59, 11, 1023, 2380, -140, 1680
14238, -61, 8, 1021, 2450, 0, 1610
14258, -61, 8, 1022, 2450, -70, 1680
14278, -63, 8, 1021, 2380, 0, 1610
14298, -63, 9, 1020, 2450, -140, 1680
14318, -65, 10, 1022, 2450, -140, 1680
14338, -63, 12, 1019, 2520, -350, 1680
14358, -63, 8, 1022, 2660, -1260, 1680
14378, -64, 7, 1022, 2380, -140, 1680
14398, -62, 9, 1020, 2450, -70, 1680
14418, -59, 10, 1022, 2450, 70, 1610
14438, -61, 8, 1021, 2450, 140, 1610
14458, -61, 8, 1020, 2520, 140, 1680
14478, -58, 10, 1021, 2520, -140, 1680
14498, -61, 8, 1023, 2450, -350, 1750
14518, -62, 9, 1020, 2450, -210, 1750
14538, -62, 8, 1021, 2450, 0, 1680
14558, -65, 8, 1021, 2380, 70, 1610
14578, -64, 9, 1021, 2450, 70, 1680
14598, -64, 9, 1019, 2450, -70, 1680
14618, -63, 10, 1018, 2450, -140, 1680
14638, -62, 9, 1020, 2450, -140, 1680
14658, -59, 10, 1020, 2380, -70, 1680
14678, -57, 10, 1022, 2450, -280, 1680
14698, -60, 10, 1023, 2450, -140, 1680
14718, -62, 9, 1020, 2450, 0, 1610
14738, -61, 8, 1021, 2450, 70, 1610
14758, -63, 7, 1021, 2450, 0, 1610
14778, -63, 10, 1023, 2450, -70, 1680
14798, -65, 8, 1021, 2380, -70, 1680
14818, -65, 8, 1019, 2450, -70, 1680
14838, -65, 9, 1020, 2450, 70, 1680
14858, -65, 11, 1018, 2450, 70, 1610
14878, -62, 9, 1019, 2450, 70, 1680
14898, -60, 9, 1022, 2450, 0, 1680
14918, -61, 8, 1020, 2450, 0, 1680
14938, -60, 10, 1020, 2450, -140, 1680
14958, -61, 8, 1020, 2450, -140, 1680
14978, -62, 9, 1021, 2450, 0, 1610
14998, -63, 8, 1022, 2450, -140, 1680
15018, -64, 9, 1021, 2520, -140, 1750
15038, -65, 11, 1019, 2450, -140, 1680
15058, -66, 8, 1022, 2450, 0, 1680
15078, -64, 8, 1020, 2450, 0, 1680
15098, -64, 8, 1023, 2450, 0, 1680
15118, -64, 8, 1021, 2450, 0, 1680
15138, -62, 10, 1019, 2450, -70, 1680
15158, -60, 9, 1021, 2450, -70, 1680
15178, -60, 9, 1021, 2450, -70, 1680
15198, -61, 9, 1023, 2450, -70, 1680
15218, -64, 9, 1022, 2450, 0, 1680
15238, -63, 9, 1019, 2450, -70, 1680
15258, -66, 8, 1021, 2450, -140, 1680
15278, -63, 10, 1022, 2450, -140, 1680
15298, -64, 8, 1020, 2450, -140, 1680
15318, -62, 9, 1020, 2450, -70, 1680
15338, -62, 7, 1021, 2450, -140, 1680
15358, -60, 7, 1023, 2450, -210, 1750
15378, -62, 10, 1022, 2520, -140, 1750
15398, -61, 7, 1022, 2450, 0, 1680
15418, -61, 7, 1022, 2450, 70, 1680
15438, -61, 8, 1022, 2450, 70, 1680
15458, -61, 10, 1023, 2450, 0, 1680
15478, -63, 8, 1020, 2450, -70, 1680
15498, -62, 10, 1022, 2450, -70, 1680
15518, -63, 10, 1018, 2450, -70, 1680
15538, -64, 10, 1021, 2450, -70, 1680
15558, -65, 8, 1018, 2380, -70, 1680
15578, -63, 9, 1022, 2450, -70, 1680
15598, -62, 8, 1022, 2450, -70, 1680
15618, -62, 9, 1023, 2450, 0, 1680
15638, -60, 10, 1018, 2450, 0, 1680
15658, -63, 10, 1019, 2450, -140, 1680
15678, -62, 11, 1020, 2450, -140, 1680
15698, -62, 8, 1021, 2380, -140, 1680
15718, -63, 8, 1022, 2380, -70, 1680
15738, -62, 8, 1021, 2450, 0, 1680
15758, -64, 9, 1021, 2450, 0, 1680
15778, -62, 7, 1020, 2450, -70, 1680
15798, -64, 10, 1020, 2450, -140, 1680
15818, -61, 9, 1022, 2450, -140, 1680
15838, -63, 8, 1019, 2450, -70, 1680
15858, -63, 9, 1021, 2450, 0, 1680
15878, -62, 9, 1021, 2380, 0, 1680
15898, -62, 8, 1019, 2380, -70, 1680
15918, -65, 8, 1019, 2450, -70, 1680
15938, -62, 7, 1022, 2380, -70, 1750
15958, -64, 9, 1021, 2450, -140, 1750
15978, -64, 10, 1020, 2450, -210, 1750
15998, -64, 9, 1020, 2450, -210, 1680
16018, -61, 8, 1021, 2450, -70, 1680
16038, -65, 9, 1021, 2450, 70, 1680
16058, -63, 9, 1021, 2450, 0, 1680
16078, -63, 10, 1020, 2450, -140, 1680
16098, -63, 9, 1020, 2450, -140, 1680
16118, -62, 8, 1024, 2450, -140, 1680
16138, -61, 8, 1024, 2450, 0, 1680
16158, -64, 8, 1022, 2450, 0, 1680
16178, -64, 9, 1021, 2450, 0, 1610
16198, -62, 7, 1019, 2450, -140, 1680
16218, -61, 9, 1022, 2450, -210, 1680
16238, -62, 9, 1020, 2450, -140, 1680
16258, -62, 8, 1021, 2450, -140, 1680
16278, -61, 10, 1021, 2450, -70, 1680
16298, -62, 7, 1020, 2450, 0, 1680
16318, -62, 10, 1020, 2450, -70, 1680
16338, -62, 9, 1022, 2450, -70, 1610
16358, -62, 10, 1023, 2450, -70, 1680
16378, -62, 7, 1021, 2450, -70, 1680
16398, -63, 8, 1023, 2450, -140, 1680
16418, -63, 9, 1021, 2450, -70, 1680
16438, -63, 8, 1022, 2450, 0, 1610
16458, -64, 7, 1021, 2450, -70, 1680
16478, -62, 9, 1021, 2450, -140, 1680
16498, -62, 10, 1024, 2450, -70, 1680
16518, -62, 9, 1019, 2450, -70, 1680
16538, -62, 8, 1021, 2450, -70, 1680
16558, -63, 10, 1021, 2450, 0, 1680
16578, -64, 8, 1019, 2450, 70, 1680
16598, -63, 9, 1020, 2450, 0, 1680
16618, -63, 10, 1021, 2520, -70, 1680
16638, -62, 8, 1020, 2450, -210, 1680
16658, -61, 9, 1025, 2450, -210, 1680
16678, -61, 11, 1018, 2380, -140, 1680
16698, -63, 9, 1019, 2450, -140, 1680
16718, -64, 8, 1021, 2450, -140, 1680
16738, -63, 6, 1023, 2450, 0, 1610
16758, -63, 7, 1021, 2450, 0, 1680
16778, -62, 10, 1021, 2520, 0, 1680
16798, -60, 10, 1019, 2520, -70, 1680
16818, -64, 8, 1020, 2450, -140, 1680
16838, -60, 9, 1021, 2380, -210, 1750
16858, -61, 8, 1022, 2380, -210, 1750
16878, -63, 7, 1023, 2450, -70, 1680
16898, -64, 10, 1019, 2450, 0, 1680
16918, -65, 10, 1022, 2450, -70, 1680
16938, -64, 8, 1024, 2450, -140, 1680
16958, -62, 9, 1021, 2450, -70, 1680
16978, -64, 10, 1020, 2450, -70, 1680
16998, -62, 9, 1021, 2450, -70, 1610
17018, -63, 9, 1020, 2450, -140, 1680
17038, -62, 7, 1021, 2450, 0, 1680
17058, -61, 9, 1022, 2380, 0, 1680
17078, -61, 9, 1020, 2450, -70, 1680
17098, -62, 10, 1021, 2450, -70, 1680
17118, -63, 8, 1022, 2450, -70, 1680
17138, -62, 8, 1021, 2450, -70, 1680
17158, -62, 10, 1022, 2450, -70, 1680
17178, -63, 7, 1021, 2450, -140, 1680
17198, -63, 9, 1022, 2450, -70, 1680
17218, -61, 10, 1020, 2450, -70, 1680
17238, -62, 9, 1020, 2450, 0, 1610
17258, -61, 9, 1021, 2450, 0, 1680
17278, -62, 9, 1021, 2450, 0, 1610
17298, -63, 8, 1021, 2450, 0, 1680
17318, -62, 9, 1019, 2450, 0, 1610
17338, -62, 9, 1021, 2450, 0, 1680
17358, -63, 9, 1020, 2450, -70, 1680
17378, -62, 11, 1019, 2450, 0, 1680
17398, -62, 10, 1021, 2380, 70, 1610
17418, -62, 8, 1022, 2450, 70, 1680
17438, -62, 8, 1022, 2380, 0, 1680
17458, -62, 8, 1021, 2450, 0, 1680
17478, -62, 10, 1022, 2450, -70, 1680
17498, -64, 10, 1021, 2520, -140, 1680
17518, -62, 9, 1021, 2450, -210, 1680
17538, -62, 9, 1021, 2450, -140, 1680
17558, -63, 9, 1021, 2450, -70, 1680
17578, -62, 9, 1021, 2450, 0, 1610
17598, -64, 8, 1024, 2450, -140, 1680
17618, -63, 9, 1024, 2450, -210, 1680
17638, -63, 10, 1021, 2450, -70, 1680
17658, -64, 9, 1021, 2450, 140, 1610
17678, -65, 8, 1022, 2450, 210, 1610
17698, -63, 9, 1020, 2450, -70, 1680
17718, -64, 8, 1020, 2450, -210, 1750
17738, -62, 11, 1019, 2450, -140, 1680
17758, -63, 10, 1022, 2380, 0, 1680
17778, -62, 8, 1020, 2380, 70, 1680
17798, -62, 6, 1024, 2380, -70, 1680
17818, -64, 9, 1021, 2380, -140, 1680
17838, -62, 10, 1021, 2450, -140, 1680
17858, -64, 11, 1019, 2450, 70, 1680
17878, -64, 9, 1022, 2450, 0, 1680
17898, -61, 9, 1020, 2450, -70, 1680
17918, -63, 10, 1021, 2380, -140, 1680
17938, -61, 9, 1021, 2450, 0, 1680
17958, -63, 9, 1023, 2450, 0, 1680
17978, -63, 7, 1022, 2450, 70, 1680
17998, -61, 9, 1019, 2450, -70, 1680
18018, -63, 10, 1021, 2450, -140, 1680
18038, -62, 9, 1020, 2450, -140, 1750
18058, -62, 10, 1022, 2450, 0, 1750
18078, -64, 9, 1022, 2380, 140, 1680
18098, -63, 9, 1019, 2380, 70, 1680
18118, -61, 8, 1023, 2380, -70, 1680
18138, -63, 10, 1021, 2380, -140, 1750
18158, -62, 7, 1024, 2450, -70, 1750
18178, -64, 7, 1023, 2450, 0, 1750
18198, -63, 11, 1019, 2520, -70, 1680
18218, -62, 9, 1019, 2520, -140, 1750
18238, -63, 9, 1021, 2520, -140, 1680
18258, -63, 8, 1021, 2450, -70, 1680
18278, -65, 7, 1019, 2450, 0, 1680
18298, -63, 8, 1023, 2450, 0, 1680
18318, -63, 8, 1022, 2450, -70, 1680
18338, -64, 7, 1021, 2450, -140, 1680
18358, -63, 9, 1021, 2450, -140, 1680
18378, -62, 9, 1021, 2450, -140, 1680
18398, -62, 9, 1022, 2450, -70, 1680
18418, -62, 9, 1020, 2450, -70, 1680
18438, -63, 8, 1020, 2450, -140, 1680
18458, -62, 10, 1022, 2450, -140, 1680
18478, -63, 8, 1022, 2380, -70, 1680
18498, -62, 9, 1024, 2380, -70, 1680
18518, -64, 8, 1023, 2380, -70, 1680
18538, -65, 8, 1022, 2380, -70, 1680
18558, -62, 6, 1020, 2450, -70, 1680
18578, -63, 8, 1020, 2520, -70, 1680
18598, -61, 10, 1019, 2520, -70, 1680
18618, -61, 9, 1020, 2520, -70, 1750
18638, -62, 9, 1021, 2450, -70, 1680
18658, -62, 9, 1022, 2450, 0, 1680
18678, -62, 8, 1022, 2450, 0, 1680
18698, -64, 7, 1022, 2450, -70, 1680
18718, -63, 8, 1023, 2450, -70, 1680
18738, -63, 10, 1021, 2450, -70, 1680
18758, -64, 9, 1020, 2520, -70, 1680
18778, -65, 9, 1018, 2450, 0, 1680
18798, -62, 8, 1020, 2380, 0, 1610
18818, -61, 8, 1020, 2450, 0, 1680
18838, -63, 8, 1021, 2380, 0, 1680
18858, -64, 9, 1021, 2380, 0, 1680
18878, -63, 9, 1022, 2380, 70, 1680
18898, -63, 8, 1025, 2380, 70, 1680
18918, -62, 8, 1021, 2450, -70, 1680
18938, -62, 8, 1023, 2450, -140, 1680
18958, -61, 9, 1019, 2520, -70, 1680
18978, -63, 9, 1021, 2520, -70, 1680
18998, -64, 8, 1015, 2520, -70, 1750
19018, -65, 10, 1025, 2520, 0, 1680
19038, -62, 8, 1019, 2450, 210, 1610
19058, -64, 9, 1022, 2520, 0, 1680
19078, -62, 9, 1020, 2450, 0, 1680
19098, -62, 9, 1021, 2450, -140, 1750
19118, -64, 10, 1020, 2520, -70, 1680
19138, -67, 9, 1020, 2450, 0, 1680
19158, -64, 9, 1021, 2450, 0, 1680
19178, -64, 9, 1018, 2520, -70, 1750
19198, -64, 10, 1017, 2450, -70, 1680
19218, -61, 9, 1021, 2450, 0, 1680
19238, -59, 8, 1022, 2380, 210, 1680
19258, -62, 5, 1024, 2380, 700, 1330
19278, -65, 7, 1014, 2450, 770, 1190
19298, -69, 13, 1023, 2520, 700, 1400
19318, -67, 11, 1016, 2520, 770, 1330
19338, -65, 8, 1024, 2520, 1400, 840
19358, -30, 43, 1020, 2380, 3430, 1330
19378, -103, -9, 1031, 2170, 6020, 3850
19398, -72, 43, 1026, 2520, 5670, -1330
19418, -129, -2, 1013, 2520, 7910, -3780
19438, -36, 87, 1107, 3220, 9590, -9240
19458, -12, 68, 1380, 10430, 12740, -31850
19478, -65, 66, 1324, 29750, 17080, -31010
19498, -128, 76, 1161, 840, 41300, -12460
19518, -228, 5, 1468, -16520, 54740, 490
19538, -153, 88, 1204, -11760, 24080, 490
19558, -189, 32, 1160, -37030, 48300, 1890
19578, -266, -11, 1224, -41720, 48720, 4830
19598, -361, -9, 1068, -44520, 44240, 15610
19618, -373, -29, 1028, -51730, 54670, 21280
19638, -344, -70, 1004, -49070, 90440, -980
19658, -364, -53, 991, -45780, 116900, -22330
19678, -397, -125, 884, -41090, 118720, -34650
19698, -391, -92, 1040, -40250, 102900, -51870
19718, -426, -153, 935, -35420, 83440, -55580
19738, -431, -168, 880, -39480, 74760, -49490
19758, -432, -158, 892, -39690, 71610, -54320
19778, -403, -225, 909, -35140, 74900, -52010
19798, -376, -238, 942, -34300, 74620, -52780
19818, -384, -278, 825, -37870, 70490, -54950
19838, -369, -265, 813, -46060, 62160, -52220
19858, -329, -319, 929, -43820, 45850, -56280
19878, -296, -341, 1005, -40460, 29120, -60480
19898, -254, -270, 844, -45360, 21210, -79240
19918, -158, -292, 818, -64890, 18550, -98910
19938, -223, -299, 880, -60340, 12950, -80500
19958, -218, -232, 818, -59850, 15120, -43400
19978, -275, -330, 614, -64190, 36610, -1190
19998, -289, -314, 508, -72170, 60620, 36470
20018, -381, -371, 419, -69370, 92400, 38640
20038, -755, -676, 363, -65450, 125720, 30520
20058, -575, -337, 542, -53410, 160440, 44030
20078, -623, -384, 284, -46900, 190960, 22260
20098, -718, -468, 316, -51870, 172130, 24220
20118, -785, -466, 359, -41650, 164640, 28840
20138, -900, -560, 193, -44800, 149240, 8680
20158, -856, -440, 149, -63070, 136570, -13300
20178, -751, -512, -27, -84910, 136010, -28840
20198, -862, -535, -20, -86100, 174790, 15890
20218, -934, -538, -61, -78120, 207550, 70560
20238, -1008, -704, -282, -77980, 156520, 73990
20258, -1130, -553, 98, -74130, 141190, 53690
20278, -873, -414, -307, -4620, 184100, 28910
20298, -690, -423, -179, -51800, 201740, 17360
20318, -720, -448, -156, -31640, 223930, 54810
20338, -755, -460, -168, -20300, 227360, 90720
20358, -731, -377, -278, -28070, 209300, 91280
20378, -687, -356, -149, -47880, 201670, 92330
20398, -583, -225, -470, -35630, 187740, 101430
20418, -786, -328, -437, -36610, 184730, 110110
20438, -959, -290, -372, -57330, 109410, 110670
20458, -932, -302, -511, -34300, 88830, 95900
20478, -1073, -312, -659, -33600, 96810, 65520
20498, -1442, -789, -620, -45850, 77630, 55650
20518, -878, -281, -478, -2240, 84910, 43190
20538, -881, -201, -403, -17500, 35420, 20720
20558, -818, -158, -662, -31150, 37240, 22960
20578, -758, -209, -637, -30800, 48510, 16100
20598, -774, -160, -709, -22680, 41230, 10570
20618, -791, -83, -868, -12040, 44660, 5460
20638, -814, -41, -1051, -33530, 34160, -16100
20658, -639, 46, -963, -43960, 28350, -32900
20678, -431, 1, -826, -38500, 45150, 630
20698, -516, 4, -811, -1960, 54670, 24850
20718, -601, 0, -759, 20930, 65660, 41510
20738, -661, -48, -798, 32200, 57890, 27510
20758, -694, -28, -877, 33040, 37170, -8260
20778, -632, -118, -744, 24570, 40600, -20510
20798, -588, -144, -684, 25690, 35910, -18270
20818, -641, -138, -716, 18480, 52080, 26810
20838, -654, -143, -824, -20720, 74620, 54950
20858, -575, -166, -765, -41160, 66850, 46340
20878, -651, -203, -652, -22330, 53830, 36120
20898, -679, -133, -446, -25130, 38500, 18340
20918, -690, 10, -261, -102620, 55370, 22260
20938, -578, 390, -257, -357350, 68810, 52640
20958, -549, 1009, -272, -762790, 65450, 88760
20978, -330, 1454, -361, -1175650, 79100, 130060
20998, -377, 1518, -500, -1491630, 159250, 157290
21018, -1081, 1254, -1230, -1303680, 150920, 141260
21038, 188, 615, -217, -110670, 364350, -87500
21058, -767, 859, -148, 286090, 36750, -69930
21078, -617, 889, -62, 303520, -122780, 154770
21098, -478, 839, 58, 297150, -108780, 85400
21118, -757, 780, 58, 193690, -68530, 78610
21138, -473, 828, -43, 32900, -6160, 61880
21158, -521, 761, -161, -151270, 18340, 44660
21178, -474, 863, -130, -257460, 56630, 52430
21198, -383, 804, -354, -270830, 94500, 14700
21218, -427, 1002, 10, -190120, 81480, -8120
21238, -361, 831, 21, -24920, 10990, -9870
21258, -320, 854, 67, -910, -42630, 2240
21278, -283, 883, 111, -3990, -43050, 1890
21298, -313, 910, 9, 2940, -10010, -15190
21318, -406, 1011, -294, 18200, 26950, -26390
21338, -166, 1396, -477, 101500, 18620, -21420
21358, -208, 1681, -186, 304430, -27440, 42420
21378, -293, 1524, 186, 326970, -6230, 106750
21398, -152, 761, -62, -125090, 94990, 158340
21418, -87, 471, -226, -500150, 44030, 280770
21438, -107, 597, -200, -355110, 76090, 305830
21458, -236, 1065, 45, 144200, 265300, 154560
21478, -335, 1501, 284, 450310, 407890, 2100
21498, -177, 1255, 29, 182630, 358050, -70980
21518, -100, 911, -234, -372470, 211540, -99260
21538, -105, 720, -176, -499800, 203840, -7420
21558, -183, 829, -40, -114870, 359100, 134540
21578, -327, 991, 43, 218750, 494480, 257250
21598, -321, 1034, 80, 229110, 532770, 200690
21618, -253, 1165, 66, 58450, 486010, -148890
21638, -253, 1415, -14, -81970, 417270, -373660
21658, -305, 1367, -1, -87990, 372750, -216790
21678, -308, 1070, 43, 28140, 360500, 123970
21698, -301, 975, 104, 114310, 342440, 324940
21718, -219, 773, 50, 101850, 288330, 237300
21738, -231, 1000, 77, 53690, 214760, 4830
21758, -278, 1245, 89, 90790, 143430, -112980
21778, -272, 1162, 126, 142310, 59710, -59080
21798, -256, 922, 128, 177520, -42000, 86940
21818, -250, 748, 76, 148750, -167580, 209510
21838, -248, 702, 51, 112000, -289030, 207690
21858, -256, 776, 35, 116900, -387800, 73990
21878, -283, 920, -5, 123900, -476630, -88690
21898, -309, 1057, -45, 121520, -563780, -167300
21918, -313, 1036, -26, 146230, -635460, -143080
21938, -322, 945, -3, 197540, -686420, -51800
21958, -346, 898, -32, 210630, -736820, 48230
21978, -366, 954, -95, 154140, -794430, 104440
21998, -327, 991, -162, 82810, -836570, 91770
22018, -265, 1027, -158, 64050, -834260, 27020
22038, -230, 1083, -92, 146440, -770350, -17500
22058, -244, 1130, -25, 274890, -673470, 21980
22078, -272, 1170, -32, 334740, -590450, 122710
22098, -246, 1132, -86, 291900, -528500, 191030
22118, -170, 1065, -99, 220780, -454580, 142800
22138, -145, 1119, -66, 206150, -338170, 14350
22158, -164, 1204, -24, 242480, -192920, -51660
22178, -189, 1171, -30, 256970, -52360, 280
22198, -194, 1080, -83, 196700, 68460, 93590
22218, -203, 1052, -119, 98560, 184940, 119630
22238, -232, 1113, -94, 52290, 324310, 57260
22258, -259, 1118, -68, 67130, 481180, 6580
22278, -265, 986, -123, 37730, 608510, 49210
22298, -280, 861, -204, -82460, 691950, 136290
22318, -336, 865, -236, -195790, 769230, 172690
22338, -417, 983, -190, -145250, 985950, 84420
22358, -437, 989, -137, -144970, 1052730, 45920
22378, -395, 871, -158, -231560, 1059730, 12740
22398, -390, 858, -189, -285530, 1048320, -3220
22418, -428, 962, -170, -231420, 1044050, 31920
22438, -468, 1073, -100, -128170, 1027390, 110950
22458, -473, 1112, -36, -76720, 969640, 173180
22478, -438, 1138, 26, -88480, 862050, 163450
22498, -389, 1198, 77, -111790, 712670, 116900
22518, -386, 1283, 94, -121170, 549010, 118090
22538, -385, 1280, 114, -117040, 378420, 173110
22558, -342, 1123, 138, -97720, 203630, 220710
22578, -334, 1034, 126, -79450, 23030, 231140
22598, -368, 1135, 86, -56490, -155120, 207340
22618, -398, 1267, 66, -1330, -312550, 151410
22638, -386, 1224, 61, 71540, -448630, 107100
22658, -373, 1040, 14, 120470, -581070, 150220
22678, -386, 938, -32, 179970, -697340, 242970
22698, -415, 978, -38, 275310, -776580, 250040
22718, -418, 993, -66, 326200, -841400, 124880
22738, -398, 946, -145, 288190, -915670, -4340
22758, -373, 890, -190, 276220, -964740, -45710
22778, -375, 894, -148, 343210, -968170, -64400
22798, -386, 919, -106, 371140, -970340, -104090
22818, -382, 884, -143, 277830, -1003940, -118090
22838, -348, 815, -199, 157080, -1034460, -75250
22858, -303, 795, -199, 131810, -1015630, -20720
22878, -270, 846, -147, 196350, -943320, -12250
22898, -236, 889, -117, 242970, -857430, -31780
22918, -197, 895, -136, 230300, -779660, -13370
22938, -179, 944, -144, 233240, -682010, 40180
22958, -186, 1041, -88, 296660, -539840, 51380
22978, -177, 1078, -33, 334950, -384790, -14910
22998, -156, 1090, -61, 265930, -260890, -88130
23018, -178, 1189, -146, 173110, -141540, -108290
23038, -284, 1437, -147, 186970, 26670, -107380
23058, -326, 1507, -40, 288890, 237790, -125020
23078, -278, 1325, -56, 274960, 398860, -119210
23098, -269, 1191, -178, 113820, 495040, -65240
23118, -350, 1266, -243, 22050, 617260, 1260
23138, -468, 1416, -195, 75110, 794570, 72870
23158, -514, 1366, -178, 94780, 954800, 152950
23178, -465, 1146, -253, -51730, 1038730, 187320
23198, -450, 1033, -302, -228480, 1089550, 162610
23218, -482, 958, -314, -307300, 1156540, 171430
23238, -499, 823, -347, -349720, 1215970, 222810
23258, -511, 716, -351, -378770, 1255450, 217980
23278, -550, 790, -264, -320950, 1295140, 133000
23298, -548, 904, -148, -202300, 1316490, 63770
23318, -491, 937, -63, -149450, 1270430, 65800
23338, -427, 937, -28, -198310, 1146600, 106120
23358, -395, 983, 6, -258720, 977550, 158690
23378, -398, 1065, 72, -251650, 796040, 220080
23398, -407, 1150, 155, -190750, 609280, 259910
23418, -394, 1213, 201, -147420, 403060, 223580
23438, -384, 1243, 152, -168840, 161350, 123200
23458, -401, 1229, 65, -210000, -97230, 64260
23478, -433, 1202, 62, -158620, -323960, 103950
23498, -497, 1183, 79, -4060, -502600, 177800
23518, -562, 1172, -28, 105630, -679770, 215320
23538, -555, 1064, -152, 118160, -872900, 210910
23558, -519, 970, -189, 176470, -1024240, 175840
23578, -535, 989, -211, 323750, -1108520, 115780
23598, -584, 1058, -238, 445900, -1170610, 57750
23618, -605, 1043, -282, 480620, -1236480, 1260
23638, -596, 981, -314, 445060, -1298360, -67480
23658, -574, 935, -331, 378770, -1342110, -137690
23678, -536, 916, -336, 307160, -1361430, -185920
23698, -473, 885, -335, 246330, -1354290, -197960
23718, -399, 845, -309, 215740, -1316350, -165060
23738, -329, 824, -243, 237930, -1242850, -96530
23758, -288, 830, -186, 290710, -1142050, -24500
23778, -256, 840, -156, 311990, -1035090, 22610
23798, -216, 834, -151, 273210, -929880, 31850
23818, -166, 834, -143, 202370, -814590, -6580
23838, -133, 878, -123, 142030, -675430, -89460
23858, -143, 1021, -100, 108010, -512120, -180740
23878, -196, 1254, -80, 87290, -336980, -241850
23898, -250, 1437, -67, 60830, -159250, -265860
23918, -241, 1366, -83, 8540, 15120, -266770
23938, -233, 1193, -141, -73010, 182070, -257670
23958, -329, 1232, -201, -136010, 353500, -248990
23978, -451, 1385, -196, -118230, 547820, -258020
23998, -515, 1471, -191, -36050, 754600, -279160
24018, -527, 1404, -261, 1540, 925820, -264880
24038, -543, 1285, -345, -49000, 1047900, -198590
24058, -600, 1246, -383, -93450, 1165500, -86100
24078, -663, 1183, -429, -104930, 1290870, 71750
24098, -692, 1054, -487, -166530, 1394190, 225610
24118, -703, 936, -498, -288470, 1467200, 288750
24138, -700, 843, -456, -381920, 1527820, 239050
24158, -662, 719, -415, -412440, 1577030, 153860
24178, -619, 642, -367, -433580, 1559810, 68250
24198, -581, 691, -280, -389340, 1495760, 87920
24218, -552, 827, -180, -320810, 1385230, 176540
24238, -550, 985, -91, -274680, 1221150, 296660
24258, -553, 1126, -6, -248710, 1022350, 344820
24278, -482, 1163, 183, -210490, 810250, 219310
24298, -366, 1130, 269, -239470, 542080, 24290
24318, -372, 1189, 165, -373240, 204050, -30030
24338, -420, 1345, -39, -416850, -116270, 27790
24358, -561, 1510, 109, -218260, -323050, 28140
24378, -620, 1590, 154, -49140, -515900, -28770
24398, -744, 1510, -113, -129990, -801500, 78470
24418, -695, 1255, -170, -62370, -1019830, 265160
24438, -703, 1181, -90, 241220, -1100610, 290920
24458, -750, 1093, -245, 373170, -1227800, 240310
24478, -709, 916, -370, 417550, -1377320, 238000
24498, -710, 829, -362, 572110, -1442210, 150780
24518, -775, 828, -394, 629090, -1508150, -32760
24538, -810, 794, -491, 506030, -1620010, -163730
24558, -779, 729, -559, 360640, -1707160, -207060
24578, -699, 663, -569, 302890, -1722210, -213150
24598, -588, 606, -538, 320740, -1671320, -215880
24618, -470, 543, -495, 371700, -1579550, -204190
24638, -376, 534, -425, 437430, -1461320, -175210
24658, -357, 702, -330, 491260, -1324750, -163240
24678, -419, 1068, -245, 467880, -1187130, -200270
24698, -460, 1482, -233, 315490, -1063930, -282310
24718, -343, 1528, -265, 89810, -933590, -343980
24738, -218, 1307, -167, -36260, -733040, -289590
24758, -242, 1321, -70, -47180, -483140, -137550
24778, -323, 1532, -117, -130760, -277830, -27580
24798, -324, 1653, -222, -307650, -106400, -87500
24818, -283, 1570, -177, -405790, 119000, -264530
24838, -338, 1532, -206, -404460, 389550, -292460
24858, -388, 1289, -342, -457870, 610120, -168840
24878, -477, 979, -379, -475860, 831950, -168560
24898, -623, 1065, -355, -342510, 1096130, -296520
24918, -718, 1285, -332, -198520, 1316280, -346290
24938, -681, 1133, -419, -195580, 1444660, -252280
24958, -650, 879, -534, -326830, 1512070, -92190
24978, -704, 842, -600, -426440, 1590400, 54390
24998, -777, 787, -695, -479710, 1681050, 200830
25018, -836, 648, -785, -567280, 1747200, 303730
25038, -922, 612, -752, -579600, 1819510, 272160
25058, -960, 685, -619, -437780, 1911700, 184940
25078, -907, 768, -483, -325360, 1935920, 190540
25098, -828, 901, -367, -358190, 1843310, 253610
25118, -791, 1177, -269, -449820, 1665860, 312970
25138, -767, 1323, -145, -502880, 1445010, 351190
25158, -653, 1275, 87, -485240, 1209670, 301770
25178, -529, 1306, 212, -440580, 945630, 97790
25198, -528, 1530, 169, -447160, 617540, -133560
25218, -569, 1630, 141, -441910, 272580, -240870
25238, -624, 1608, 193, -318430, -22190, -234990
25258, -729, 1598, 99, -183260, -313320, -172900
25278, -782, 1502, -88, -168980, -649530, -115220
25298, -791, 1310, -192, -148820, -956550, -94710
25318, -815, 1111, -266, -22540, -1185310, -49910
25338, -856, 898, -343, 165480, -1370110, 63630
25358, -901, 731, -421, 372330, -1531950, 179340
25378, -970, 603, -538, 541590, -1683220, 213220
25398, -1056, 553, -660, 619430, -1834420, 148120
25418, -1134, 582, -764, 601510, -1975820, 18690
25438, -1141, 599, -855, 503160, -2091740, -126630
25458, -1017, 515, -923, 362600, -2161180, -234430
25478, -818, 430, -917, 283220, -2149560, -283150
25498, -687, 530, -797, 350280, -2028110, -329770
25518, -615, 729, -657, 493500, -1830640, -437360
25538, -542, 974, -571, 532980, -1648430, -551600
25558, -535, 1477, -449, 463680, -1493520, -566580
25578, -583, 1995, -218, 416640, -1307600, -456050
25598, -553, 1651, -104, 378910, -1089690, -213150
25618, -461, 1275, -189, 173110, -929530, 115290
25638, -351, 1253, -322, -150290, -838320, 325500
25658, -292, 1577, -339, -331240, -688730, 304570
25678, -393, 1997, -125, -285110, -397600, 84070
25698, -502, 1997, -157, -163170, -22400, -32830
25718, -417, 1489, -486, -315630, 225470, 209300
25738, -306, 964, -462, -632730, 363860, 417480
25758, -400, 906, -303, -635180, 634900, 228270
25778, -488, 963, -371, -461020, 978670, -47250
25798, -623, 942, -525, -487270, 1186920, -163240
25818, -693, 762, -537, -558250, 1355900, -249200
25838, -697, 609, -547, -496230, 1564500, -271950
25858, -700, 589, -630, -458850, 1719550, -162540
25878, -743, 578, -774, -546770, 1792000, -17920
25898, -813, 512, -883, -696360, 1837640, 111860
25918, -948, 477, -998, -815360, 1891680, 192570
25938, -1157, 691, -943, -791840, 1976450, 182840
25958, -1251, 965, -803, -571410, 2107140, 171640
25978, -1226, 1160, -683, -356370, 2187360, 255570
25998, -1164, 1365, -582, -357980, 2131290, 395220
26018, -1069, 1496, -388, -611590, 1748950, 443380
26038, -848, 1318, -121, -654010, 1494220, 268100
26058, -667, 1279, 56, -645820, 1187340, -6790
26078, -656, 1557, 120, -577150, 854420, -224840
26098, -656, 1699, 205, -418740, 534450, -322210
26118, -614, 1576, 248, -248850, 203980, -304920
26138, -629, 1444, 151, -167440, -170520, -253890
26158, -679, 1369, 64, -94850, -528990, -259420
26178, -744, 1304, -51, -19880, -853090, -282240
26198, -813, 1120, -234, 26740, -1161020, -225820
26218, -884, 861, -334, 126420, -1424430, -97650
26238, -976, 655, -467, 282310, -1646330, 11060
26258, -1099, 519, -639, 413980, -1855140, 47880
26278, -1207, 479, -802, 506380, -2044070, 17850
26298, -1300, 506, -937, 542920, -2199820, -72730
26318, -1328, 524, -1050, 515760, -2285990, -181510
26338, -1224, 447, -1134, 467740, -2293480, -259070
26358, -1030, 391, -1156, 500150, -2288020, -313530
26378, -910, 537, -1072, 632030, -2187150, -409290
26398, -887, 884, -925, 736960, -2000180, -574770
26418, -863, 1440, -823, 684600, -1833930, -720510
26438, -832, 1997, -724, 561820, -1648290, -718970
26458, -805, 1997, -223, 513800, -1369200, -424550
26478, -686, 1544, -139, 338170, -1138760, 126980
26498, -691, 1418, -324, -54040, -1071070, 484610
26518, -461, 1613, -542, -324310, -973420, 456400
26538, -252, 1799, -326, -288960, -667940, 79380
26558, -402, 1997, -88, -77490, -177730, -54880
26578, -569, 1779, -327, -181790, 166110, 353710
26598, -313, 1020, -598, -545370, 340760, 638890
26618, -275, 665, -405, -609700, 635390, 339150
26638, -357, 611, -353, -450170, 1030050, -21350
26658, -491, 667, -568, -503090, 1273440, -86450
26678, -711, 725, -713, -618100, 1466640, -129010
26698, -844, 647, -723, -550550, 1727390, -173110
26718, -857, 480, -777, -499870, 1937110, -78890
26738, -839, 308, -897, -645330, 2034760, 43330
26758, -865, 180, -994, -860650, 2084530, 80850
26778, -994, 250, -1069, -970900, 2139900, 45290
26798, -1254, 683, -1099, -890540, 2217810, 14280
26818, -1488, 1326, -1001, -644630, 2285710, 109830
26838, -1564, 1638, -961, -480620, 2291520, 376460
26858, -1454, 1531, -894, -584500, 2218930, 601790
26878, -1197, 1250, -526, -714560, 2065420, 556570
26898, -950, 1166, -261, -749770, 1862560, 326270
26918, -899, 1406, -134, -788410, 1554840, 28210
26938, -849, 1739, 180, -655970, 1259300, -306600
26958, -724, 1738, 204, -399910, 972370, -454790
26978, -620, 1445, 121, -299600, 579180, -368200
26998, -598, 1294, 200, -160790, 211400, -288330
27018, -659, 1354, 198, 71050, -100870, -309960
27038, -718, 1317, -3, 146580, -470470, -364700
27058, -752, 1073, -175, 93520, -862820, -351890
27078, -821, 815, -248, 124040, -1172710, -265790
27098, -940, 634, -434, 208320, -1428070, -187740
27118, -1050, 513, -618, 240450, -1684550, -127120
27138, -1164, 481, -759, 319900, -1896230, -110390
27158, -1291, 570, -890, 414610, -2061570, -177800
27178, -1351, 587, -1042, 413840, -2205770, -295330
27198, -1229, 482, -1165, 354550, -2287600, -359730
27218, -942, 435, -1238, 358540, -2293200, -357910
27238, -739, 730, -1195, 569100, -2223130, -356510
27258, -747, 1300, -991, 968030, -1966160, -410690
27278, -845, 1957, -681, 1289050, -1707510, -468720
27298, -1024, 1997, -360, 1287510, -1577660, -355670
27318, -988, 1590, -413, 946470, -1544060, -84700
27338, -803, 1482, -565, 386470, -1583260, 41510
27358, -535, 1644, -652, -73850, -1541960, -74060
27378, -327, 1843, -442, -254940, -1295140, -257530
27398, -379, 1885, -37, -111020, -817600, -294070
27418, -439, 1579, -185, 1750, -350560, 5390
27438, -202, 1024, -456, -286300, -131880, 366730
27458, -123, 695, -347, -582680, 46760, 340200
27478, -214, 685, -275, -503930, 420490, -8120
27498, -357, 801, -360, -362880, 814030, -186270
27518, -465, 747, -545, -408800, 1083670, -143850
27538, -596, 603, -677, -530950, 1302000, -80220
27558, -728, 570, -742, -568750, 1536360, -37660
27578, -808, 486, -800, -542920, 1767360, 39900
27598, -817, 310, -909, -620690, 1919680, 157710
27618, -918, 198, -1075, -811510, 1995910, 201530
27638, -1378, 742, -1156, -919520, 2066400, 106050
27658, -1634, 1400, -899, -688100, 2215850, -31080
27678, -1509, 1459, -760, -300790, 2292710, 47880
27698, -1304, 1456, -743, -336140, 2281720, 246680
27718, -1137, 1524, -489, -612010, 2146690, 248780
27738, -930, 1354, -507, -734930, 1949500, 259490
27758, -822, 1136, -465, -916790, 1649480, 362530
27778, -792, 1184, 34, -935550, 1371370, 247800
27798, -755, 1487, 251, -541100, 1264340, -45290
27818, -623, 1530, 155, -319410, 1018990, -232960
27838, -475, 1296, 168, -360010, 617190, -390460
27858, -449, 1065, 188, -61180, -10290, -258370
27878, -521, 988, 157, 72590, -321790, -116690
27898, -617, 997, 66, 118580, -643230, -138110
27918, -676, 949, -118, 79450, -962430, -239470
27938, -688, 742, -312, 55790, -1234660, -263690
27958, -706, 499, -383, 180600, -1417920, -210700
27978, -795, 424, -462, 371140, -1560020, -184590
27998, -968, 591, -556, 459270, -1717030, -238350
28018, -1146, 871, -680, 418390, -1883140, -345800
28038, -1184, 1069, -873, 271950, -2025030, -427000
28058, -972, 1099, -966, 233940, -2044350, -422240
28078, -711, 1081, -760, 495110, -1873130, -311150
28098, -575, 994, -457, 845110, -1654450, -81550
28118, -564, 927, -362, 987980, -1558830, 242270
28138, -773, 1232, -291, 992600, -1501500, 471520
28158, -1020, 1654, -381, 836010, -1457540, 347830
28178, -727, 1472, -640, 419790, -1491630, -128730
28198, -416, 1237, -601, 185710, -1353380, -474250
28218, -358, 1431, -297, 345450, -985670, -555940
28238, -403, 1730, 10, 455840, -676480, -449750
28258, -361, 1490, -89, 206920, -555520, -186410
28278, -221, 1061, -244, -163310, -482510, 31220
28298, -84, 745, -186, -266280, -270760, -5040
28318, -75, 676, -85, -172550, 36190, -176750
28338, -131, 847, -76, -136570, 281050, -231840
28358, -204, 980, -163, -172410, 451220, -142870
28378, -290, 957, -188, -200550, 605920, 22260
28398, -309, 773, -221, -224840, 756070, 161980
28418, -343, 694, -255, -256270, 893060, 188300
28438, -400, 752, -226, -283080, 1012480, 159530
28458, -482, 957, -231, -323120, 1100540, 129850
28478, -604, 1187, -284, -450030, 1128120, 126630
28498, -600, 1104, -311, -549010, 1150310, 13580
28518, -565, 998, -215, -521570, 1205610, -154490
28538, -577, 1025, -212, -478660, 1224370, -220290
28558, -706, 1230, -329, -464590, 1196300, -238910
28578, -837, 1553, -204, -301630, 1218280, -272020
28598, -762, 1556, -18, -57330, 1250900, -227990
28618, -578, 1269, -77, -34790, 1146180, -98910
28638, -512, 1207, -109, -126070, 972370, 9730
28658, -548, 1351, -25, -60760, 864710, 110040
28678, -553, 1337, 109, 71400, 784700, 225750
28698, -428, 1097, 135, 64750, 638260, 263900
28718, -306, 881, 111, -47530, 429730, 194250
28738, -264, 770, 87, -82110, 240730, 137620
28758, -264, 714, 115, -15400, 84770, 150360
28778, -284, 691, 150, 86800, -56420, 163100
28798, -322, 737, 141, 133280, -208460, 113610
28818, -353, 799, 50, 98700, -380240, 7630
28838, -341, 772, -42, 20090, -550200, -108290
28858, -343, 798, -73, -630, -679560, -169190
28878, -398, 917, -59, 63490, -759360, -161000
28898, -481, 1107, -45, 142170, -818300, -106120
28918, -540, 1200, -94, 153510, -887250, -37380
28938, -521, 1136, -167, 106050, -963200, 54180
28958, -472, 1051, -161, 104790, -998900, 151620
28978, -440, 1076, -133, 194460, -970900, 210980
28998, -432, 1181, -141, 296310, -916160, 221200
29018, -421, 1295, -152, 361900, -856660, 218120
29038, -410, 1344, -126, 423850, -772310, 199010
29058, -381, 1366, -95, 472500, -668010, 147210
29078, -322, 1224, -74, 470470, -567840, 79100
29098, -291, 1175, -85, 421750, -475580, 27020
29118, -305, 1236, -71, 354130, -384720, -27300
29138, -260, 1204, -49, 296660, -278950, -95830
29158, -186, 1049, -26, 238770, -168210, -151410
29178, -132, 874, -15, 173740, -62790, -119700
29198, -119, 743, -23, 108570, 36330, -18200
29218, -139, 690, -32, 46620, 135940, 75460
29238, -171, 708, -37, -18760, 237090, 95690
29258, -198, 802, -45, -85960, 338730, 36260
29278, -246, 947, -17, -152530, 430990, -54600
29298, -282, 1046, -51, -220570, 505750, -97370
29318, -307, 1002, -123, -304850, 552930, -71190
29338, -361, 978, -144, -374360, 591570, -31150
29358, -495, 1179, -117, -366030, 653170, -62580
29378, -508, 1245, -14, -274050, 736960, -184100
29398, -446, 1147, 56, -174510, 800100, -321580
29418, -342, 927, -87, -189700, 777560, -345660
29438, -337, 940, -197, -233660, 724220, -285390
29458, -551, 930, -281, -116060, 745290, -198800
29478, -1137, 1997, 151, 131740, 826560, -107520
29498, -836, 1997, -88, 332710, 874580, -240240
29518, -362, 1487, -105, 181860, 723170, -344540
29538, -241, 723, -144, -231840, 490070, -178010
29558, -192, 505, -10, -307790, 452200, 132300
29578, -206, 378, 0, -58240, 519330, 322000
29598, -209, 422, 71, 77770, 524300, 347480
29618, -237, 518, 168, 161000, 484960, 268240
29638, -282, 751, 197, 198800, 405160, 126210
29658, -343, 1124, 92, 64820, 295120, -120050
29678, -366, 1514, -42, -139440, 165690, -464800
29698, -371, 1420, 100, -56770, 96110, -238910
29718, -345, 989, 175, 59360, 75600, 145670
29738, -328, 732, 143, -27720, -61600, 268450
29758, -363, 790, 69, -151060, -216090, 70490
29778, -403, 1080, -31, -232120, -325780, -324660
29798, -462, 1569, -92, -173670, -341950, -657090
29818, -436, 1721, 11, -11270, -311360, -587160
29838, -550, 1584, 138, 101010, -341250, -115150
29858, -641, 1272, 84, 43260, -473970, 277340
29878, -593, 1254, -8, -113610, -650020, 172410
29898, -475, 1246, -200, -258160, -786380, -167930
29918, -316, 1131, -263, -259140, -799820, -306740
29938, -329, 1211, -44, 46830, -667170, -133210
29958, -471, 1263, 148, 322140, -570150, 181580
29978, -594, 1203, 119, 293580, -630910, 382200
29998, -512, 918, -134, 36260, -795060, 377860
30018, -328, 717, -235, -98000, -878150, 209230
30038, -237, 687, -175, 32410, -795200, -23310
30058, -209, 738, -82, 230020, -659960, -158970
30078, -205, 799, -3, 325290, -586110, -158830
30098, -246, 850, 41, 301350, -578060, -49000
30118, -277, 813, 5, 188230, -600530, 84910
30138, -306, 871, -43, 61600, -607180, 129570
30158, -255, 900, -84, -34860, -574070, 32550
30178, -217, 978, -68, -78050, -490140, -117600
30198, -198, 1054, -46, -95620, -390810, -172550
30218, -269, 1216, -66, -79520, -289100, -63630
30238, -430, 1510, -6, -76510, -203700, 134680
30258, -463, 1502, -56, -84980, -112490, 231280
30278, -389, 1521, -22, -187670, -52430, 126490
30298, -291, 1333, -91, -311990, 0, -25620
30318, -281, 1234, -124, -365120, 78120, 12600
30338, -372, 1269, -98, -337820, 174790, 153930
30358, -418, 1277, -114, -290850, 275870, 215180
30378, -442, 1415, -40, -273140, 364560, 77560
30398, -376, 1372, 27, -289240, 431060, -144900
30418, -273, 1117, -58, -370650, 442890, -203350
30438, -235, 866, -109, -452480, 426720, -84140
30458, -229, 688, -103, -419020, 446040, 40530
30478, -237, 580, -62, -295610, 497910, 71820
30498, -260, 636, -9, -156170, 549010, 16450
30518, -299, 834, 103, -44660, 563010, -73080
30538, -292, 984, 146, -5600, 518700, -106330
30558, -269, 956, 60, -105350, 401240, -59010
30578, -240, 835, 0, -209650, 276780, 35280
30598, -226, 752, 7, -177800, 213780, 111440
30618, -252, 805, 104, -63070, 195160, 140350
30638, -291, 925, 166, 26110, 162120, 132440
30658, -324, 1066, 107, -15890, 66500, 108360
30678, -346, 1209, -36, -142590, -68670, 94360
30698, -373, 1322, -59, -180530, -154350, 113750
30718, -391, 1309, 109, -42070, -131950, 159530
30738, -382, 1155, 139, 83090, -100450, 208110
30758, -354, 1044, 10, 2380, -179270, 248850
30778, -355, 1182, -121, -112630, -285460, 258860
30798, -466, 1585, -66, -49350, -293650, 226590
30818, -546, 1830, 150, 171150, -192640, 172550
30838, -437, 1406, 56, 230720, -158340, 172830
30858, -304, 923, -65, 40040, -261660, 294910
30878, -248, 808, -74, -32480, -316400, 388220
30898, -296, 1021, 13, 105840, -252420, 335720
30918, -355, 1263, 114, 261380, -155680, 152740
30938, -305, 1244, 46, 248500, -133350, -8050
30958, -233, 989, -38, 96670, -186760, -10010
30978, -187, 769, -19, 29750, -201530, 127540
30998, -184, 676, 58, 105910, -141400, 217420
31018, -168, 631, 80, 162610, -79170, 172270
31038, -153, 634, 67, 93380, -65870, 40110
31058, -135, 668, 9, -31220, -75670, -94780
31078, -160, 804, -26, -124320, -74340, -180600
31098, -238, 1029, -13, -115990, -37450, -192080
31118, -381, 1321, 84, -28840, 27160, -143080
31138, -409, 1385, 93, 24220, 77770, -88900
31158, -315, 1233, -17, -80640, 60620, -104090
31178, -266, 1131, -89, -256550, 17080, -181860
31198, -338, 1273, -40, -294070, 44100, -236320
31218, -461, 1520, 50, -176050, 139160, -223720
31238, -493, 1605, 36, -88830, 207550, -190540
31258, -405, 1428, -40, -152810, 199360, -214200
31278, -342, 1258, -43, -250250, 178150, -294560
31298, -353, 1227, 16, -220430, 216230, -319620
31318, -377, 1207, 36, -124180, 267050, -255920
31338, -368, 1152, 28, -75600, 275730, -185780
31358, -339, 1101, 32, -77000, 253190, -186270
31378, -304, 1058, 58, -71260, 228830, -243740
31398, -266, 970, 85, -39130, 204820, -265790
31418, -237, 842, 83, -9940, 161210, -202230
31438, -217, 728, 81, -5040, 91630, -98210
31458, -212, 662, 81, -2520, 12880, -23660
31478, -190, 657, 107, 15820, -63350, -6650
31498, -187, 688, 100, 39200, -138740, -28840
31518, -224, 716, 49, 39340, -322420, 25200
31538, -232, 789, 8, 71610, -379050, 88760
31558, -274, 938, -8, 145390, -404740, 141540
31578, -350, 1186, 0, 234850, -399420, 177380
31598, -422, 1397, 8, 289870, -382130, 185080
31618, -402, 1384, 1, 282380, -370230, 177520
31638, -336, 1240, -40, 256130, -352170, 182420
31658, -314, 1224, -67, 279090, -296800, 195650
31678, -379, 1417, -45, 351960, -200620, 178570
31698, -451, 1647, -3, 391720, -106330, 121380
31718, -444, 1652, -6, 343420, -51030, 67130
31738, -376, 1482, -44, 254100, -14630, 78540
31758, -338, 1309, -53, 229460, 56070, 134400
31778, -346, 1253, -2, 250880, 151130, 155190
31798, -334, 1190, 24, 228690, 220710, 116410
31818, -290, 1108, 16, 149030, 251720, 66430
31838, -257, 1022, -7, 64820, 268520, 59430
31858, -246, 933, -12, 27440, 297710, 100030
31878, -236, 827, 8, 20160, 334600, 144900
31898, -209, 715, 25, 2310, 361410, 153020
31918, -187, 615, 24, -43750, 368970, 111790
31938, -172, 562, 18, -89250, 368130, 41090
31958, -171, 569, 14, -105700, 368410, -33600
31978, -197, 643, 21, -85330, 371000, -92610
31998, -252, 802, 38, -45780, 369460, -133350
32018, -334, 1021, 43, -10570, 358260, -169400
32038, -428, 1294, 33, 9590, 338100, -220430
32058, -466, 1473, 37, 21630, 314930, -281400
32078, -419, 1391, 47, 31080, 287910, -300860
32098, -375, 1233, 18, 31080, 249270, -239120
32118, -420, 1273, -12, 54950, 216300, -173040
32138, -526, 1524, 14, 126280, 206080, -192850
32158, -556, 1687, 74, 195790, 194040, -284830
32178, -448, 1544, 54, 182630, 134400, -329840
32198, -382, 1297, 2, 124950, 50540, -248080
32218, -393, 1212, 21, 140770, 4690, -140840
32238, -429, 1259, 88, 211750, -15470, -130900
32258, -394, 1240, 87, 219380, -72240, -209230
32278, -326, 1100, 35, 143640, -175070, -263270
32298, -278, 933, 17, 93730, -267190, -221900
32318, -271, 820, 49, 127120, -323190, -131880
32338, -286, 767, 76, 179690, -375480, -71470
32358, -295, 737, 56, 172690, -456680, -63140
32378, -287, 696, -5, 114100, -560630, -72450
32398, -266, 644, -71, 71260, -652260, -62790
32418, -238, 631, -102, 104300, -698740, -29260
32438, -236, 718, -82, 222530, -689430, 7070
32458, -284, 899, -45, 359030, -649880, 25340
32478, -340, 1100, -46, 430710, -617680, 24360
32498, -379, 1260, -103, 419440, -600460, 11200
32518, -385, 1313, -101, 383880, -564340, -20790
32538, -343, 1282, -58, 379540, -483280, -93870
32558, -323, 1266, -71, 355250, -396620, -161560
32578, -358, 1375, -99, 299320, -318640, -179690
32598, -430, 1539, -70, 278600, -213710, -197050
32618, -433, 1618, -14, 281400, -87710, -248850
32638, -377, 1505, -33, 220500, 7700, -288540
32658, -325, 1324, -96, 111790, 79730, -251020
32678, -344, 1233, -86, 63140, 181720, -177940
32698, -369, 1219, -44, 95480, 320180, -139440
32718, -362, 1188, -19, 112000, 440720, -143570
32738, -327, 1101, -40, 59710, 514360, -147630
32758, -291, 992, -68, -23870, 559370, -111930
32778, -285, 881, -81, -78890, 605010, -32340
32798, -284, 767, -75, -99470, 655550, 63700
32818, -273, 660, -75, -113890, 698250, 128100
32838, -267, 584, -69, -138320, 726250, 135800
32858, -273, 568, -58, -159530, 742980, 92050
32878, -291, 625, -33, -159040, 751310, 19320
32898, -328, 747, -9, -137060, 748370, -55580
32918, -383, 947, 3, -109130, 728980, -113680
32938, -431, 1139, 2, -79800, 694470, -155610
32958, -461, 1276, 14, -43610, 652820, -178920
32978, -451, 1300, 33, 4760, 609700, -173670
32998, -436, 1267, 25, 52220, 557410, -132370
33018, -455, 1316, 17, 88060, 492030, -74970
33038, -505, 1454, 28, 141400, 430570, -44310
33058, -533, 1591, 78, 212240, 375760, -52290
33078, -481, 1539, 84, 263340, 307020, -68530
33098, -427, 1356, 49, 252700, 203770, -49070
33118, -409, 1262, 43, 234780, 93240, 7700
33138, -427, 1251, 94, 274680, 11270, 39060
33158, -414, 1210, 94, 330190, -65590, 5390
33178, -382, 1105, 45, 318570, -179830, -63070
33198, -361, 986, 14, 271670, -315210, -100800
33218, 559, 1554, 208, 262010, -432180, -94360
33238, -44, 364, -63, 155890, -438130, -7840
33258, -192, 544, 113, -195160, -72380, 264950
33278, -257, 765, 265, 144550, 92190, 41510
33298, -293, 941, 312, 300090, 67970, -151550
33318, -343, 943, 78, 163030, -135870, -180670
33338, -335, 849, -207, -148470, -413910, -49140
33358, -394, 1221, -239, 15260, -578830, 288330
33378, -593, 1693, 212, 426790, -400120, 142520
33398, -510, 1476, 140, 305060, -473270, -21700
33418, -383, 951, -212, -79520, -699860, 168350
33438, -247, 826, -274, 3220, -707700, 427140
33458, -389, 1208, -35, 453880, -474040, 411880
33478, -576, 1737, 227, 612360, -334880, 113750
33498, -463, 1656, -114, 252280, -464660, -75320
33518, -240, 1205, -323, 28770, -515410, 95340
33538, -266, 1127, -36, 348600, -266840, 289590
33558, -318, 1080, 165, 552440, -60200, 259980
33578, -306, 1083, 147, 322210, -80640, 79730
33598, -205, 974, -131, -20440, -160160, -64050
33618, -170, 1008, -188, -80080, -109340, -107170
33638, -230, 1063, 14, 175980, 89950, -25480
33658, -258, 980, 174, 307160, 220500, 123480
33678, -216, 789, 107, 112630, 192080, 186550
33698, -147, 604, -34, -181440, 123620, 132510
33718, -104, 528, -111, -299040, 133840, -7910
33738, -151, 663, -40, -174300, 242480, -134050
33758, -225, 854, 75, -560, 350910, -138950
33778, -307, 1065, 150, 19320, 366030, -59080
33798, -346, 1155, 11, -149730, 293720, -11550
33818, -340, 1147, -134, -323680, 237160, -94360
33838, -354, 1192, 14, -235340, 316260, -271390
33858, -351, 1200, 129, -77350, 406280, -300370
33878, -344, 1157, 53, -114660, 366520, -185570
33898, -371, 1160, -140, -237020, 282660, -118930
33918, -508, 1402, -77, -172760, 308000, -203770
33938, -543, 1595, 159, 69510, 419720, -335370
33958, -437, 1467, 154, 98210, 390600, -330050
33978, 30, -1102, 471, -105490, 231700, -211260
33998, 252, 1997, -322, -2240, 91980, -315630
34018, -908, 1997, 126, 237160, -265020, -247660
34038, -432, 902, 132, 142870, -100590, 410830
34058, -1774, -592, -771, -159600, -189980, 545580
34078, 16, -363, 207, -328090, 134540, 199640
34098, -572, 1666, 20, -12460, 283850, -331310
34118, -261, 1864, 471, 173390, 224630, -382480
34138, -460, 914, 365, 182910, 110950, -203350
34158, -602, 935, -1, 11060, 78120, -86520
34178, -618, 873, -261, -131460, 43120, -77420
34198, -397, 821, -233, -144900, -11900, -47110
34218, -473, 835, -76, -63700, -66640, 18200
34238, -546, 914, 21, 30030, -105490, 95130
34258, -542, 879, 71, 51660, -103250, 125300
34278, -475, 907, 102, 23100, -82390, 110110
34298, -424, 883, 64, -21420, -84000, 86170
34318, -451, 799, 23, -41090, -113050, 98000
34338, -464, 789, 30, -42980, -138600, 117810
34358, -529, 765, 20, -30450, -136500, 100170
34378, -453, 869, 123, -13300, -102480, 56910
34398, -439, 919, 164, 560, -61880, -2590
34418, -402, 945, 208, 490, -44940, -21070
34438, -482, 950, 142, 980, -39690, -3080
34458, -466, 927, 180, 9170, -34580, 27020
34478, -467, 926, 158, 23940, -22260, 30240
34498, -477, 887, 137, 20720, -24920, 27300
34518, -365, 929, 183, 22400, -26460, 25690
34538, -386, 957, 192, 19950, -30100, 17500
34558, -372, 941, 181, 12810, -30590, 18410
34578, -355, 948, 172, 11060, -30380, 19530
34598, -391, 937, 112, 7140, -30940, 18270
34618, -366, 945, 94, -700, -34790, 27370
34638, -340, 915, 101, -2870, -39130, 31360
34658, -305, 915, 132, 4970, -34090, 29750
34678, -288, 952, 171, 20650, -22400, 20300
34698, -295, 952, 172, 32900, -11130, 8680
34718, -298, 948, 166, 31150, -6160, 8190
34738, -326, 967, 138, 22540, -4970, 9030
34758, -323, 929, 110, 11410, -9520, 6370
34778, -275, 952, 135, 1960, -18480, 5180
34798, -282, 965, 151, 9380, -19180, 3780
34818, -276, 980, 171, 23520, -14980, 9170
34838, -315, 986, 144, 30450, -14070, 18620
34858, -319, 954, 118, 27580, -13860, 26740
34878, -270, 943, 126, 18340, -14490, 26530
34898, -244, 974, 139, 12600, -13860, 15470
34918, -244, 956, 122, 6650, -8120, 10990
34938, -261, 946, 84, -1330, -9590, 21700
34958, -262, 962, 92, -560, -12320, 29120
34978, -217, 938, 123, 4620, -4760, 23170
34998, -209, 926, 122, 9240, -6860, 17430
35018, -220, 973, 117, 9520, -9520, 11830
35038, -227, 1003, 129, 4550, -5180, 490
35058, -228, 1008, 139, -3220, 1260, -9660
35078, -243, 1011, 121, -10430, 1680, -7980
35098, -223, 942, 107, -11340, -6160, 6930
35118, -201, 907, 108, -6650, -17500, 22120
35138, -211, 964, 98, 4690, -16170, 17500
35158, -234, 1039, 87, 13790, 2730, -5180
35178, -210, 1039, 22, 12320, 28910, -22680
35198, -259, 980, 103, 4270, 82740, -420
35218, -214, 874, 84, 1470, 87430, 3780
35238, -232, 916, 79, 4900, 80640, -1050
35258, -263, 1020, 68, 21980, 79730, -11200
35278, -275, 1040, 77, 16730, 81410, -6020
35298, -250, 985, 42, -16940, 72100, 6160
35318, -251, 938, 90, -22610, 84910, 11760
35338, -215, 866, 122, -5880, 99890, 6580
35358, -258, 988, 118, -3220, 95690, 630
35378, -316, 1120, 96, 4340, 85820, -4130
35398, -298, 1048, 92, -13720, 66430, 10570
35418, -257, 928, 75, -38360, 45850, 23940
35438, -269, 905, 35, -42000, 31290, 22820
35458, -275, 906, 50, -20860, 19320, 12460
35478, -274, 914, 32, -8120, -2240, 2660
35498, -284, 972, 33, 14490, -19040, -5950
35518, -261, 1006, 37, 43540, -26250, -13510
35538, -234, 1010, 72, 56980, -21560, -12250
35558, -202, 991, 79, 31080, -3220, -13650
35578, -203, 950, 75, -11200, 30450, -18480
35598, -229, 967, 69, -36540, 65100, -22050
35618, -263, 1002, 68, -29190, 74970, -15890
35638, -287, 999, 55, -15610, 60130, 23730
35658, -298, 950, 38, -13790, 35000, 66500
35678, -278, 899, 31, -8680, 12320, 61110
35698, -245, 930, 33, 5250, -910, 7700
35718, -244, 1000, 42, 14700, 6860, -40180
35738, -261, 1050, 37, 7630, 30380, -38150
35758, -293, 1026, 35, -7490, 56490, 3850
35778, -288, 960, 39, -13860, 71750, 37030
35798, -264, 908, 49, -9450, 69930, 28490
35818, -243, 910, 51, -5320, 58590, -3710
35838, -244, 951, 47, -7490, 48580, -23590
35858, -279, 1022, 47, -5320, 50190, -19810
35878, -308, 1024, 51, -1120, 52990, 2240
35898, -281, 966, 53, 4340, 35140, 19110
35918, -247, 922, 52, 7770, 6230, 13510
35938, -238, 914, 45, 5040, -8470, -2450
35958, -250, 954, 42, 1050, -4620, -12250
35978, -289, 1001, 50, 5040, 6020, -10500
35998, -305, 1021, 55, 13580, 7420, -2800
36018, -293, 986, 53, 17780, -14840, 210
36038, -268, 935, 46, 13790, -48090, -2380
36058, -266, 913, 39, 12180, -70560, -6370
36078, -282, 935, 36, 21000, -84140, -5740
36098, -299, 977, 44, 38710, -97510, -8750
36118, -304, 1005, 41, 47950, -117810, -14770
36138, -296, 992, 27, 42420, -142450, -13090
36158, -287, 964, 21, 37730, -161840, -4970
36178, -286, 951, 25, 45920, -169680, 1190
36198, -285, 954, 28, 56560, -172060, -700
36218, -285, 969, 24, 57120, -176050, -7420
36238, -282, 976, 14, 49000, -180530, -11550
36258, -279, 977, 14, 45010, -178360, -9450
36278, -279, 970, 20, 49770, -166880, -3290
36298, -274, 963, 25, 52850, -152600, 1190
36318, -269, 951, 16, 44940, -141400, 1190
36338, -265, 948, 8, 31500, -130410, -1470
36358, -267, 961, 11, 26670, -112420, -4900
36378, -269, 971, 22, 30660, -87290, -6510
36398, -267, 966, 24, 30730, -62580, -3500
36418, -268, 968, 13, 17990, -43820, 1260
36438, -267, 972, 6, 1470, -26740, 3150
36458, -272, 975, 13, -3990, -2800, 1890
36478, -272, 980, 25, -630, 25900, 350
36498, -274, 978, 24, -3710, 49280, 1190
36518, -273, 971, 13, -18060, 64190, 6300
36538, -273, 965, 11, -30030, 77910, 11060
36558, -278, 966, 22, -28630, 96390, 11690
36578, -283, 971, 30, -21070, 115220, 9730
36598, -282, 971, 27, -23450, 124740, 8330
36618, -284, 975, 19, -35350, 125020, 9030
36638, -288, 976, 21, -40740, 125160, 11550
36658, -288, 969, 33, -32830, 129500, 14280
36678, -287, 963, 39, -23450, 131390, 15890
36698, -286, 955, 35, -25410, 123270, 14560
36718, -281, 948, 28, -33530, 108150, 11480
36738, -281, 954, 32, -33600, 94430, 9940
36758, -287, 959, 43, -21140, 84840, 10220
36778, -287, 950, 48, -8540, 73290, 12740
36798, -279, 931, 40, -7280, 54110, 14980
36818, -274, 926, 31, -11550, 30800, 13160
36838, -279, 939, 37, -7770, 11270, 7420
36858, -286, 961, 44, 6720, -2380, 2590
36878, -292, 978, 44, 19250, -16240, 910
36898, -291, 977, 34, 19670, -35350, 350
36918, -288, 967, 26, 13370, -55440, -1960
36938, -287, 971, 30, 14700, -68530, -6720
36958, -289, 985, 34, 24920, -74410, -11690
36978, -288, 989, 31, 31990, -79730, -12600
36998, -288, 984, 24, 29680, -87640, -9380
37018, -283, 976, 22, 24850, -93800, -7140
37038, -279, 968, 29, 30170, -88970, -14630
37058, -274, 960, 29, 28840, -85820, -17010
37078, -271, 954, 23, 21980, -84210, -14630
37098, -271, 957, 20, 18340, -79240, -10640
37118, -276, 968, 22, 20720, -68880, -9380
37138, -277, 976, 28, 22050, -56980, -10710
37158, -275, 974, 28, 14980, -48230, -11550
37178, -270, 962, 19, 3430, -41230, -9380
37198, -266, 953, 17, -1120, -30100, -4410
37218, -270, 954, 24, 2240, -14560, 420
37238, -277, 973, 27, 3850, -140, 1680
37258, -279, 987, 24, -2240, 9940, 980
37278, -278, 983, 20, -9590, 19180, 2310
37298, -275, 976, 20, -11410, 30520, 6020
37318, -278, 974, 27, -8750, 42700, 10220
37338, -281, 970, 28, -8400, 51870, 13580
37358, -278, 967, 25, -12950, 56630, 14210
37378, -279, 969, 23, -16660, 59920, 12600
37398, -282, 979, 26, -14490, 64610, 11830
37418, -285, 985, 32, -10220, 68460, 13580
37438, -285, 974, 34, -10990, 67760, 17500
37458, -279, 952, 29, -15960, 62930, 19530
37478, -275, 940, 27, -17290, 58170, 17010
37498, -275, 941, 33, -11480, 55160, 12740
37518, -282, 954, 37, -5040, 50680, 10780
37538, -285, 971, 36, -3570, 42070, 10920
37558, -289, 980, 30, -4690, 31640, 12040
37578, -285, 970, 33, -2730, 23100, 11760
37598, -281, 953, 36, 1610, 15820, 9940
37618, -275, 942, 37, 3570, 6650, 7910
37638, -277, 948, 32, 3360, -4410, 6720
37658, -287, 978, 29, 5670, -13720, 5460
37678, -297, 1009, 32, 12180, -19460, 2590
37698, -294, 1004, 35, 16380, -24220, 70
37718, -278, 959, 34, 13580, -31010, 630
37738, -264, 915, 27, 7630, -39130, 3220
37758, -268, 922, 25, 8120, -43960, 3150
37778, -279, 967, 27, 17010, -43680, -1820
37798, -293, 1009, 35, 25060, -41510, -9030
37818, -288, 996, 33, 22400, -42560, -12040
37838, -270, 945, 24, 9730, -46900, -8680
37858, -259, 908, 22, 2170, -48020, -3220
37878, -265, 921, 24, 6370, -42980, -2170
37898, -284, 985, 29, 15330, -35140, -8820
37918, -299, 1041, 29, 17500, -29260, -17360
37938, -294, 1033, 28, 10780, -25970, -18760
37958, -273, 969, 24, 840, -22890, -10850
37978, -261, 914, 23, -4900, -17920, -1050
37998, -262, 913, 24, -4270, -11200, 1680
38018, -273, 953, 26, 420, -3710, -3710
38038, -285, 1000, 30, 4480, 3430, -11690
38058, -286, 1005, 31, 4340, 8820, -13930
38078, -276, 962, 30, -2100, 11270, -7280
38098, -265, 924, 23, -10500, 11760, 2520
38118, -266, 928, 24, -12110, 14420, 5950
38138, -282, 971, 29, -5110, 20300, 1330
38158, -292, 1011, 33, 1820, 25690, -5390
38178, -291, 1010, 32, 700, 26670, -6230
38198, -278, 963, 27, -6930, 24080, 840
38218, -268, 924, 27, -11900, 21840, 10500
38238, -268, 921, 28, -9870, 21700, 14490
38258, -280, 961, 31, -3640, 22190, 10010
38278, -291, 1007, 32, 2310, 21770, 3850
38298, -296, 1017, 32, 3780, 19390, 3430
38318, -286, 982, 30, 1400, 15750, 10010
38338, -278, 949, 31, -2100, 11830, 18130
38358, -274, 944, 26, -3150, 8470, 19810
38378, -279, 960, 29, 70, 6790, 14770
38398, -284, 977, 34, 6720, 6790, 10290
38418, -285, 981, 34, 9450, 5040, 10430
38438, -277, 955, 29, 5880, 210, 13230
38458, -271, 935, 27, 840, -4760, 15680
38478, -273, 940, 31, 3010, -5600, 14420
38498, -278, 963, 34, 8750, -4480, 9380
38518, -279, 969, 32, 10780, -5180, 4410
38538, -276, 955, 30, 7210, -8120, 4130
38558, -274, 944, 28, 3290, -10570, 6230
38578, -277, 955, 28, 3080, -10710, 6090
38598, -285, 985, 30, 6160, -8610, 2170
38618, -288, 997, 32, 8890, -6090, -3010
38638, -284, 984, 31, 6930, -5390, -4970
38658, -275, 957, 26, 1470, -6230, -3150
38678, -277, 958, 27, -1470, -5810, -700
38698, -284, 978, 30, 2310, -2240, -1470
38718, -286, 987, 33, 7070, 1820, -4900
38738, -281, 975, 29, 6300, 3080, -7490
38758, -273, 951, 27, 70, 1470, -7210
38778, -271, 942, 28, -3570, 560, -5110
38798, -276, 953, 31, -2450, 1400, -3990
38818, -280, 971, 31, 1260, 2940, -5740
38838, -284, 983, 29, 1890, 2590, -8960
38858, -282, 978, 27, -140, 840, -10710
38878, -279, 962, 30, -910, -1120, -6370
38898, -274, 944, 31, 1050, -1540, -3150
38918, -274, 949, 31, 1680, -3360, -3010
38938, -280, 966, 29, 1470, -5810, -5670
38958, -285, 985, 29, 2800, -6930, -7070
38978, -282, 983, 29, 4690, -7280, -4690
38998, -277, 961, 32, 4900, -8120, 840
39018, -274, 948, 29, 3150, -10220, 4970
39038, -278, 959, 27, 2240, -11900, 3920
39058, -282, 981, 26, 4620, -11060, 350
39078, -287, 995, 29, 8540, -8470, -420
39098, -281, 982, 33, 8750, -7350, 4550
39118, -275, 951, 28, 3990, -8680, 11410
39138, -270, 940, 24, 1190, -9030, 13580
39158, -275, 954, 26, 4340, -5880, 9730
39178, -277, 968, 32, 9800, -1050, 5460
39198, -278, 968, 33, 9030, 840, 6300
39218, -275, 957, 27, 2590, -420, 10920
39238, -275, 954, 25, -1470, -280, 14350
39258, -276, 958, 29, 1400, 3990, 13230
39278, -280, 967, 31, 4480, 8540, 8610
39298, -279, 976, 30, 2800, 10290, 5670
39318, -282, 981, 26, -1190, 10570, 7350
39338, -282, 977, 27, -1820, 12530, 11130
39358, -279, 966, 31, 210, 15890, 12880
39378, -274, 942, 32, -70, 17640, 10780
39398, -269, 933, 29, -3430, 16730, 6720
39418, -275, 956, 25, -3430, 16310, 3710
39438, -288, 994, 28, 2100, 18410, 3220
39458, -296, 1018, 34, 7070, 20650, 3640
39478, -290, 995, 35, 4690, 19740, 3570
39498, -274, 950, 30, -4130, 15190, 2380
39518, -264, 919, 26, -10080, 10640, 140
39538, -272, 935, 27, -6510, 9310, -2590
39558, -284, 977, 31, 3850, 10500, -5250
39578, -296, 1015, 36, 10010, 9800, -7140
39598, -287, 991, 33, 5740, 4480, -7840
39618, -273, 941, 29, -3430, -3150, -7000
39638, -265, 915, 28, -4830, -7560, -5460
39658, -269, 925, 31, 2240, -8890, -5250
39678, -281, 963, 36, 10360, -10290, -6790
39698, -291, 999, 35, 12460, -14210, -9450
39718, -289, 999, 30, 9030, -19390, -11060
39738, -279, 967, 29, 4550, -23590, -9310
39758, -269, 936, 29, 3850, -25410, -4830
39778, -270, 931, 33, 7000, -25550, -630
39798, -278, 966, 31, 10290, -25690, 140
39818, -288, 1001, 26, 10850, -26110, -3500
39838, -289, 1007, 30, 10080, -25200, -6300
39858, -281, 981, 30, 9030, -22820, -3500
39878, -272, 946, 28, 5250, -21350, 3640
39898, -267, 931, 25, 770, -20510, 9380
39918, -270, 945, 25, 1400, -17150, 9730
39938, -277, 975, 27, 6440, -10920, 5320
39958, -281, 986, 31, 9520, -4830, 1680
39978, -276, 969, 31, 6020, -1750, 3640
39998, -271, 940, 25, -2380, -1190, 9940
40018, -268, 935, 23, -6930, 1050, 14140
40038, -278, 966, 27, -2240, 7770, 11900
40058, -292, 1006, 31, 4830, 15820, 5670
40078, -292, 1016, 31, 4410, 19810, 1330
40098, -282, 984, 25, -4200, 19460, 3570
40118, -273, 945, 25, -10850, 19670, 10780
40138, -272, 939, 29, -8820, 23240, 14770
40158, -281, 968, 30, -1820, 28000, 11900
40178, -289, 1001, 31, 1960, 29960, 4760
40198, -288, 998, 31, 560, 28770, 210
40218, -277, 960, 31, -2940, 26320, 3150
40238, -269, 921, 32, -5670, 23380, 9450
40258, -266, 911, 29, -5460, 20300, 11830
40278, -273, 938, 33, -980, 18200, 8120
40298, -285, 977, 34, 4970, 16240, 1050
40318, -291, 997, 33, 7350, 12460, -4200
40338, -287, 995, 30, 5530, 7070, -4060
40358, -283, 970, 31, 2940, 1960, -350
40378, -276, 944, 32, 3080, -1330, 3220
40398, -272, 935, 32, 4550, -4130, 2870
40418, -276, 951, 30, 4550, -8260, -1540
40438, -287, 987, 30, 5180, -12250, -6790
40458, -290, 1002, 35, 9380, -13650, -8750
40478, -284, 972, 36, 12320, -14210, -5390
40498, -269, 930, 31, 8470, -17570, -490
40518, -265, 923, 23, 1330, -22540, 770
40538, -275, 958, 26, 980, -24150, -2800
40558, -287, 1001, 32, 9310, -20860, -7910
40578, -292, 1005, 38, 17220, -16590, -8820
40598, -277, 968, 28, 14000, -16800, -3710
40618, -270, 938, 21, 1400, -21070, 2100
40638, -270, 939, 24, -5670, -22190, 2030
40658, -276, 956, 34, 420, -16240, -1610
40678, -280, 974, 34, 9450, -8820, -4060
40698, -285, 989, 25, 7770, -7070, -2870
40718, -283, 991, 19, -5530, -7420, 2380
40738, -285, 993, 27, 700, 490, 1960
40758, -287, 988, 35, 4830, 6930, 1680
40778, -282, 978, 32, -2380, 6370, 3570
40798, -276, 960, 23, -9940, 4620, 6370
40818, -269, 940, 25, -6370, 8540, 8890
40838, -268, 926, 34, 2310, 14420, 9660
40858, -267, 923, 36, 3150, 14910, 8400
40878, -272, 944, 26, -1750, 11200, 6440
40898, -285, 987, 23, -910, 10780, 4760
40918, -297, 1021, 30, 7420, 15680, 4760
40938, -293, 1009, 40, 9590, 18340, 7000
40958, -276, 952, 33, -1960, 13230, 10080
40978, -265, 923, 21, -13160, 6720, 10430
40998, -273, 951, 21, -6930, 8260, 7000
41018, -293, 1005, 33, 9590, 15330, 2660
41038, -297, 1021, 44, 14910, 17010, 1120
41058, -284, 977, 34, 1190, 8890, 3640
41078, -260, 913, 22, -12460, 210, 7700
41098, -252, 882, 24, -8400, -420, 9380
41118, -261, 905, 35, 6790, 3360, 6090
41138, -282, 972, 39, 15750, 3360, -770
41158, -299, 1028, 31, 11410, -2380, -5880
41178, -297, 1026, 26, 4060, -7280, -6090
41198, -280, 974, 32, 2240, -7420, -630
41218, -269, 928, 32, 3080, -6720, 5810
41238, -270, 929, 28, 1820, -8680, 7000
41258, -281, 974, 25, 2940, -10010, 910
41278, -297, 1019, 28, 8820, -7490, -7280
41298, -292, 1018, 37, 13580, -3780, -9940
41318, -276, 962, 37, 7910, -5250, -3430
41338, -261, 904, 26, -4690, -11340, 6160
41358, -256, 890, 20, -7700, -13580, 7910
41378, -269, 937, 27, 3990, -8470, -210
41398, -289, 998, 38, 18060, -1400, -10500
41418, -295, 1024, 38, 17150, -1120, -13230
41438, -283, 987, 26, 2450, -7210, -6510
41458, -270, 940, 23, -8540, -10710, 3150
41478, -267, 926, 28, -4620, -6650, 5740
41498, -275, 949, 35, 4690, -490, 210
41518, -287, 994, 33, 6020, 770, -7910
41538, -289, 1016, 25, -280, -1960, -10430
41558, -289, 1004, 26, -2380, -1540, -3920
41578, -282, 973, 30, 2030, 3010, 5740
41598, -275, 946, 33, 3150, 5320, 9660
41618, -269, 932, 29, -1820, 3290, 6300
41638, -271, 950, 25, -5180, 1260, 210
41658, -281, 978, 29, -210, 3150, -2450
41678, -287, 989, 35, 7350, 6510, 1610
41698, -282, 968, 33, 6930, 6090, 8680
41718, -274, 944, 26, -1260, 1610, 11690
41738, -274, 946, 22, -6160, -1260, 7420
41758, -276, 963, 30, -560, 1330, 980
41778, -279, 972, 36, 7700, 5040, 420
41798, -279, 962, 33, 6860, 3500, 5740
41818, -275, 947, 26, -1120, -1890, 11340
41838, -271, 941, 24, -4480, -4270, 10990
41858, -277, 960, 30, 1610, -1190, 5040
41878, -289, 1002, 34, 8960, 2450, -560
41898, -293, 1014, 32, 8820, 2030, 280
41918, -285, 982, 28, 2730, -770, 6790
41938, -274, 949, 28, -1330, -1610, 11410
41958, -273, 940, 29, -630, 0, 8890
41978, -274, 955, 31, 2730, 2170, 2800
41998, -282, 976, 33, 5740, 3430, -70
42018, -283, 976, 31, 5670, 3010, 1680
42038, -278, 957, 30, 3220, 1890, 5110
42058, -273, 940, 29, 1470, 1470, 5880
42078, -272, 945, 30, 1470, 1680, 2730
42098, -277, 964, 31, 2590, 1820, -1610
42118, -279, 971, 30, 3710, 1820, -2870
42138, -278, 963, 29, 3360, 1260, -350
42158, -279, 960, 27, 2030, 490, 2590
42178, -283, 976, 28, 1890, 350, 2240
42198, -287, 999, 30, 3500, 1260, -1890
42218, -287, 998, 33, 4760, 2310, -5460
42238, -282, 975, 31, 3920, 2590, -4130
42258, -274, 948, 27, 210, 1050, 490
42278, -270, 936, 27, -2240, -490, 3080
42298, -275, 948, 30, 140, -70, 1540
42318, -278, 967, 31, 4970, 1330, -2380
42338, -280, 973, 31, 6790, 1120, -5320
42358, -281, 971, 28, 5250, -770, -3570
42378, -283, 979, 29, 3640, -2380, 770
42398, -287, 984, 31, 4620, -2380, 2450
42418, -278, 967, 32, 5670, -1680, 910
42438, -274, 949, 32, 3920, -2100, -770
42458, -274, 947, 29, 350, -3850, -770
42478, -277, 958, 29, -1120, -5250, 420
42498, -281, 965, 31, 1400, -4620, 1820
42518, -280, 963, 35, 4620, -3080, 2170
42538, -276, 961, 30, 3780, -3430, 1120
42558, -278, 965, 24, -2380, -6650, -560
42578, -280, 970, 29, 1680, -4270, 1470
42598, -282, 972, 35, 5250, -1890, 3500
42618, -282, 971, 33, 2590, -2800, 3640
42638, -278, 964, 25, -2590, -4900, 2170
42658, -277, 963, 26, -2310, -4060, 630
42678, -277, 963, 32, 2870, -700, 1820
42698, -278, 956, 33, 5600, 1190, 5250
42718, -275, 953, 30, 2030, -560, 6790
42738, -278, 965, 26, -1190, -2030, 3850
42758, -281, 980, 25, 1400, 210, 210
42778, -283, 986, 31, 6720, 4200, -630
42798, -279, 963, 36, 5880, 4760, 3710
42818, -271, 936, 30, -1540, 1190, 8820
42838, -271, 935, 22, -5530, -1050, 7980
42858, -278, 967, 26, 700, 2170, 1820
42878, -289, 998, 35, 10360, 7630, -2520
42898, -289, 999, 37, 10220, 8190, -280
42918, -280, 970, 28, -70, 3290, 6090
42938, -274, 947, 23, -5740, 700, 9450
42958, -273, 943, 28, 210, 4200, 7280
42978, -280, 966, 33, 8610, 8610, 1820
42998, -287, 988, 35, 9030, 8400, -1330
43018, -283, 986, 28, 3220, 4970, 1610
43038, -277, 958, 28, 0, 3500, 7070
43058, -274, 937, 31, 2870, 5320, 9030
43078, -272, 939, 34, 5460, 6300, 5810
43098, -275, 954, 29, 3290, 4060, 700
43118, -280, 977, 25, 980, 1820, -1960
43138, -288, 993, 30, 3920, 2870, -700
43158, -288, 990, 34, 7140, 4690, 2030
43178, -280, 964, 32, 3850, 3220, 3430
43198, -273, 943, 28, -2590, -210, 1960
43218, -271, 939, 26, -3500, -1470, -1190
43238, -276, 960, 30, 2240, 280, -3500
43258, -286, 981, 34, 7210, 1470, -3570
43278, -284, 980, 32, 5250, -770, -1610
43298, -278, 959, 28, -1470, -5110, -490
43318, -275, 953, 27, -3430, -6860, -1680
43338, -277, 962, 32, 1190, -5320, -3640
43358, -281, 973, 33, 6090, -3990, -3080
43378, -284, 978, 30, 4340, -6090, -420
43398, -281, 974, 27, 350, -9030, 910
43418, -279, 970, 29, 140, -9100, -70
43438, -278, 965, 34, 4690, -6510, -1820
43458, -275, 961, 34, 5670, -5880, -840
43478, -276, 960, 26, 1960, -8120, 2520
43498, -279, 969, 26, -420, -9380, 4060
43518, -281, 977, 28, 3500, -6580, 2520
43538, -280, 973, 35, 7070, -3360, 490
43558, -274, 956, 29, 4060, -3710, 980
43578, -271, 946, 24, -2520, -6370, 4200
43598, -274, 950, 23, -2660, -5740, 6650
43618, -282, 977, 32, 4060, -1120, 5460
43638, -290, 1001, 35, 9520, 3080, 1820
43658, -284, 989, 32, 5880, 2800, 700
43678, -272, 946, 26, -2940, -70, 4620
43698, -266, 925, 23, -6160, -350, 9380
43718, -272, 944, 30, 140, 3570, 9660
43738, -283, 978, 34, 8190, 7980, 6930
43758, -287, 992, 32, 8750, 8680, 3850
43778, -282, 982, 28, 3360, 6930, 3080
43798, -277, 961, 30, -560, 6440, 5390
43818, -274, 945, 29, -490, 7770, 7700
43838, -275, 952, 30, 770, 8960, 7840
43858, -282, 975, 27, 1330, 9240, 4830
43878, -287, 994, 30, 1750, 9380, 490
43898, -284, 985, 33, 2380, 9940, -1680
43918, -275, 953, 31, 1050, 9450, 0
43938, -270, 935, 28, -2030, 7210, 3430
43958, -274, 948, 27, -2310, 5390, 4200
43978, -284, 976, 32, 2380, 5740, 700
43998, -286, 982, 36, 7700, 6580, -3640
44018, -279, 961, 32, 7490, 4900, -4620
44038, -273, 943, 27, 1330, -280, -1610
44058, -274, 950, 25, -1890, -4270, 840
44078, -283, 975, 33, 3080, -3920, -210
44098, -288, 992, 36, 10150, -2100, -3920
44118, -285, 985, 30, 9310, -3920, -6790
44138, -279, 962, 26, 2100, -8750, -5600
44158, -272, 945, 27, -1050, -11270, -1400
44178, -274, 948, 33, 3500, -9800, 1540
44198, -283, 974, 33, 8890, -7980, 700
44218, -287, 996, 29, 7560, -9450, -2870
44238, -281, 980, 26, 3080, -11970, -5530
44258, -270, 941, 33, 1820, -11690, -2730
44278, -267, 920, 33, 3360, -9730, 3500
44298, -271, 944, 27, 2800, -9800, 6300
44318, -286, 994, 23, 1470, -10920, 3080
44338, -296, 1025, 29, 3850, -9100, -2730
44358, -288, 999, 38, 8610, -4270, -4550
44378, -272, 940, 31, 6650, -2170, 1050
44398, -263, 912, 22, -11060, -8050, 12040
44418, -271, 945, 20, -3290, -3500, 6790
44438, -289, 998, 31, 11060, 5390, 700
44458, -294, 1022, 39, 13720, 9030, 490
44478, -284, 985, 32, -70, 4060, 6650
44498, -267, 932, 23, -12740, -700, 13650
44518, -263, 915, 22, -8190, 2940, 14700
44538, -273, 943, 32, 5740, 10850, 8540
44558, -285, 986, 38, 11270, 14140, 2030
44578, -290, 1000, 33, 3430, 10500, 1120
44598, -284, 986, 24, -5880, 6440, 5180
44618, -273, 949, 26, -5250, 7840, 10010
44638, -271, 932, 33, 1540, 11760, 10780
44658, -277, 953, 34, 4060, 12250, 5600
44678, -285, 985, 30, 1540, 9520, -280
44698, -287, 996, 27, 490, 8190, -1750
44718, -281, 973, 32, 2450, 8890, 1540
44738, -273, 945, 34, 2870, 8330, 5880
44758, -273, 938, 30, 560, 5250, 6020
44778, -278, 957, 27, 280, 2800, 1190
44798, -286, 985, 30, 5390, 3570, -4620
44818, -288, 989, 36, 9800, 4550, -5740
44838, -280, 973, 34, 6580, 1470, -1610
44858, -275, 951, 26, 70, -3710, 1960
44878, -273, 948, 25, 700, -5040, 1260
44898, -278, 959, 34, 8190, -2380, -3360
44918, -279, 966, 38, 11970, -1750, -7140
44938, -276, 961, 32, 6650, -6090, -6650
44958, -274, 951, 26, 1050, -10360, -3290
44978, -274, 946, 29, 3850, -9590, -420
44998, -277, 958, 34, 10010, -6580, -1680
45018, -282, 976, 33, 9170, -7070, -5740
45038, -285, 989, 29, 3080, -9870, -7980
45058, -289, 1002, 26, 0, -10360, -6440
45078, -289, 999, 30, 3080, -6790, -2940
45098, -281, 969, 34, 4480, -3850, 980
45118, -274, 946, 29, -1680, -5320, 1680
45138, -270, 946, 23, -7280, -7420, -840
45158, -276, 964, 27, -4130, -5390, -3150
45178, -282, 976, 33, 4760, -350, -1610
45198, -283, 975, 35, 7280, 1400, 2870
45218, -279, 972, 29, 1120, -1540, 5880
45238, -282, 980, 23, -4130, -3850, 4620
45258, -283, 983, 29, -140, -700, 1610
45278, -280, 976, 35, 6160, 3850, 2030
45298, -277, 961, 33, 4410, 3430, 6230
45318, -274, 947, 26, -3640, -1190, 10080
45338, -269, 939, 25, -6300, -2940, 9800
45358, -272, 941, 32, -210, 210, 6440
45378, -276, 956, 36, 6090, 2940, 4200
45398, -281, 975, 31, 4830, 1050, 5530
45418, -282, 975, 26, 280, -2310, 9240
45438, -280, 963, 32, 700, -1890, 12320
45458, -276, 951, 32, 4830, 1190, 11410
45478, -277, 956, 32, 4830, 1820, 8050
45498, -281, 980, 28, 1260, 70, 5950
45518, -287, 998, 26, 980, 280, 6230
45538, -285, 986, 33, 5670, 4060, 8190
45558, -277, 957, 34, 6930, 6720, 9520
45578, -272, 945, 25, 1050, 4900, 8050
45598, -276, 960, 23, -4060, 2730, 4480
45618, -281, 977, 30, 140, 5180, 1120
45638, -279, 966, 41, 8820, 10360, 1470
45658, -272, 937, 35, 8820, 10570, 4270
45678, -267, 926, 25, -1120, 4830, 4550
45698, -272, 943, 23, -5390, 1540, 700
45718, -282, 975, 33, 3290, 5040, -4690
45738, -288, 989, 40, 12810, 9240, -7000
45758, -285, 982, 31, 9660, 6720, -4970
45778, -280, 974, 22, -910, 350, -2030
45798, -283, 973, 27, -3570, -1540, -2800
45818, -282, 975, 40, 4410, 2590, -6020
45838, -279, 966, 37, 9870, 4970, -7910
45858, -274, 953, 28, 3710, 280, -6720
45878, -279, 953, 23, -2940, -5180, -3500
45898, -284, 973, 31, 1120, -4690, -2310
45918, -285, 986, 40, 10570, -770, -5180
45938, -282, 973, 37, 12180, -770, -7420
45958, -273, 947, 27, 3010, -6510, -5880
45978, -271, 939, 24, -5110, -11830, -2100
45998, -279, 969, 31, -560, -10430, -280
46018, -292, 998, 38, 11130, -5040, -2030
46038, -285, 986, 33, 12530, -4410, -4200
46058, -274, 954, 25, 1260, -10010, -3500
46078, -269, 937, 25, -7350, -14000, -350
46098, -273, 945, 34, -2590, -11060, 3010
46118, -276, 955, 38, 6160, -6370, 4550
46138, -275, 960, 31, 6650, -6230, 4270
46158, -276, 964, 25, -560, -9800, 3150
46178, -279, 973, 28, -3500, -10500, 2660
46198, -283, 979, 34, 1610, -6300, 4060
46218, -284, 981, 32, 6860, -1820, 7490
46238, -281, 978, 26, -3290, -3150, 10360
46258, -279, 972, 25, -3920, -910, 8680
46278, -277, 966, 31, 1400, 4550, 7910
46298, -278, 963, 34, 3150, 7420, 9380
46318, -276, 959, 31, -1120, 6370, 11760
46338, -277, 957, 27, -4900, 5390, 12110
46358, -276, 957, 28, -1820, 8190, 9660
46378, -275, 950, 34, 3220, 11900, 7420
46398, -275, 947, 36, 2660, 11900, 7560
46418, -276, 953, 28, -2800, 8400, 7980
46438, -282, 974, 23, -2730, 7770, 7140
46458, -291, 1000, 29, 5390, 12250, 4620
46478, -293, 1009, 39, 10290, 15610, 2170
46498, -285, 976, 34, 2590, 11900, 2380
46518, -273, 941, 26, -8260, 5600, 4130
46538, -269, 932, 23, -6300, 4970, 4130
46558, -279, 957, 33, 7140, 9940, 1680
46578, -286, 982, 41, 14980, 11830, -1470
46598, -284, 978, 34, 8330, 6020, -3080
46618, -275, 952, 28, -910, -910, -2450
46638, -271, 936, 28, 1400, -1680, -1050
46658, -273, 935, 35, 10500, 840, -840
46678, -280, 959, 38, 13790, -70, -2800
46698, -290, 997, 29, 9030, -4900, -6650
46718, -294, 1017, 26, 5460, -7770, -9590
46738, -286, 991, 35, 7910, -5810, -8330
46758, -274, 947, 39, 8330, -4690, -3640
46778, -264, 916, 32, 1750, -8610, -770
46798, -266, 924, 26, -2730, -12530, -1890
46818, -278, 962, 28, 2590, -11200, -6650
46838, -289, 1003, 35, 11550, -7000, -10360
46858, -290, 1004, 38, 12040, -6300, -8470
46878, -279, 969, 33, 1820, -10640, -1680
46898, -272, 942, 23, -7280, -14350, 3220
46918, -273, 950, 25, -3990, -11620, 2240
46938, -286, 990, 35, 5880, -5390, -2380
46958, -291, 1007, 36, 8750, -2660, -4200
46978, -282, 984, 31, 1470, -4900, 280
46998, -271, 944, 26, -6300, -7140, 7560
47018, -263, 922, 27, -6370, -5530, 10920
47038, -268, 931, 32, -490, -1540, 8330
47058, -277, 963, 34, 3220, 560, 3570
47078, -284, 991, 29, 1120, -490, 1190
47098, -283, 982, 27, -1890, -1190, 4340
47118, -278, 958, 31, -1260, 770, 10150
47138, -275, 946, 31, -1190, 2240, 12390
47158, -276, 962, 27, -3500, 1680, 9030
47178, -285, 990, 26, -2940, 2380, 4060
47198, -287, 997, 33, 2030, 5740, 2730
47218, -285, 983, 34, 4760, 8190, 6510
47238, -277, 955, 29, -280, 6230, 10920
47258, -269, 933, 26, -5950, 3360, 11480
47278, -270, 938, 29, -3010, 4620, 8330
47298, -278, 965, 33, 5740, 8330, 4270
47318, -284, 986, 31, 9660, 9170, 2730
47338, -285, 986, 31, 7140, 6860, 4900
47358, -282, 971, 32, 3430, 4620, 7350
47378, -275, 953, 32, 2520, 4270, 6160
47398, -273, 945, 31, 3290, 4620, 2870
47418, -277, 957, 30, 4760, 4550, 700
47438, -284, 979, 31, 6160, 4130, 210
47458, -286, 988, 33, 7490, 3920, 350
47478, -281, 970, 32, 7000, 3570, -420
47498, -271, 941, 33, 4410, 2380, -1610
47518, -265, 926, 29, 1890, 700, -2100
47538, -272, 940, 30, 2590, -210, -1680
47558, -283, 976, 30, 7000, 350, -2170
47578, -293, 1009, 33, 11480, 1610, -3990
47598, -291, 1009, 34, 11060, 1470, -5880
47618, -279, 968, 30, 4900, -630, -5740
47638, -271, 942, 27, -1190, -2660, -3010
47658, -273, 947, 29, -1540, -2660, -770
47678, -281, 970, 33, 2730, -910, -1330
47698, -283, 979, 34, 6650, 560, -3780
47718, -278, 962, 33, 5320, -210, -5180
47738, -272, 948, 30, -140, -3220, -4200
47758, -273, 947, 28, -2870, -5250, -1470
47778, -279, 960, 33, 280, -4340, 910
47798, -282, 977, 35, 4970, -2660, 1330
47818, -282, 976, 33, 4480, -3290, -490
47838, -274, 955, 30, -420, -5880, -1260
47858, -272, 943, 29, -3990, -7560, 1260
47878, -277, 961, 30, -2520, -7070, 4340
47898, -287, 995, 32, 1190, -5530, 4760
47918, -290, 1004, 34, 3990, -4060, 2800
47938, -282, 980, 33, 2660, -3640, 1960
47958, -270, 941, 28, -2940, -5110, 4060
47978, -267, 927, 25, -8050, -6860, 7490
47998, -275, 950, 29, -5530, -5390, 9940
48018, -286, 990, 33, 2800, -1330, 9100
48038, -292, 1003, 33, 8540, 1890, 6020
48058, -280, 974, 32, 6300, 2030, 4480
48078, -265, 920, 29, -5390, -1050, 10500
48098, -256, 892, 28, -2940, 420, 12600
48118, -259, 897, 28, 4480, 3570, 9940
48138, -263, 925, 30, 12110, 6790, 4060
48158, -271, 939, 32, 15820, 8680, 70
48178, -267, 934, 32, 14770, 8820, 140
48198, -256, 905, 27, 12880, 9030, 3360
48218, -251, 888, 21, 15330, 11690, 5460
48238, -253, 890, 22, 24780, 18340, 3710
48258, -264, 924, 24, 36610, 27300, 1400
48278, -285, 996, 24, 44520, 35980, -770
48298, -322, 1105, 20, 44730, 43890, -2310
48318, -345, 1180, 18, 39060, 53830, -2030
48338, -328, 1126, 27, 28070, 65870, 2100
48358, -297, 1028, 29, 6860, 73430, 10360
48378, -280, 970, 23, -18340, 76020, 17080
48398, -282, 975, 15, -34160, 80990, 15960
48418, -302, 1023, 22, -36190, 91910, 5460
48438, -310, 1048, 40, -38990, 101570, -7420
48458, -297, 1008, 44, -57890, 99820, -12530
48478, -282, 956, 31, -88270, 86730, -11690
48498, -279, 935, 25, -105910, 74480, -13860
48518, -289, 958, 29, -101360, 68810, -24990
48538, -303, 996, 46, -89390, 62370, -41300
48558, -305, 1007, 47, -88200, 45500, -51170
48578, -304, 1005, 37, -96460, 18550, -51520
48598, -310, 1011, 33, -97230, -8610, -47040
48618, -317, 1023, 42, -82740, -30380, -47390
48638, -319, 1024, 49, -66710, -53760, -54530
48658, -305, 991, 44, -61320, -85680, -58730
48678, -295, 950, 33, -59010, -122220, -50610
48698, -296, 940, 31, -44030, -154070, -36960
48718, -299, 942, 35, -16100, -179340, -28560
48738, -294, 927, 32, 7630, -204680, -27930
48758, -277, 896, 20, 23590, -231700, -28560
48778, -260, 853, 8, 41650, -254170, -22120
48798, -254, 838, 3, 74270, -264530, -10080
48818, -262, 861, 6, 117880, -262710, -3430
48838, -280, 932, 3, 155050, -255220, -12950
48858, -305, 1029, -7, 178010, -244230, -37450
48878, -320, 1108, -17, 191030, -226800, -65450
48898, -323, 1131, -9, 202790, -198310, -83580
48918, -317, 1115, 1, 209160, -162960, -88060
48938, -310, 1094, -7, 197400, -129990, -89390
48958, -310, 1099, -24, 175980, -95410, -101150
48978, -324, 1149, -27, 166320, -47880, -126000
48998, -339, 1211, -8, 172270, 13300, -150220
49018, -335, 1208, 2, 170310, 73500, -153720
49038, -315, 1138, -10, 139160, 120540, -132510
49058, -297, 1059, -32, 94640, 163100, -102760
49078, -291, 1023, -31, 70630, 218050, -82600
49098, -297, 1008, -6, 71820, 285040, -71680
49118, -292, 984, 9, 65660, 343560, -55650
49138, -281, 937, 0, 25410, 377930, -28070
49158, -270, 886, -20, -33460, 396130, 4060
49178, -271, 852, -19, -76580, 416010, 30800
49198, -275, 825, -3, -94150, 441140, 48230
49218, -276, 801, 17, -109480, 457450, 52780
49238, -276, 789, 15, -142870, 452690, 38780
49258, -279, 811, 7, -186690, 430570, 2870
49278, -299, 880, 8, -212170, 405930, -47740
49298, -339, 994, 21, -205380, 388010, -99050
49318, -387, 1124, 37, -180250, 370230, -142660
49338, -418, 1222, 31, -161000, 341390, -180600
49358, -433, 1273, 27, -150850, 301420, -219590
49378, -445, 1304, 32, -127190, 261520, -251510
49398, -480, 1373, 46, -83440, 222740, -262290
49418, -506, 1443, 51, -35070, 174720, -260330
49438, -502, 1438, 54, -1400, 110320, -268590
49458, -465, 1352, 53, 19530, 32900, -284270
49478, -454, 1282, 50, 39130, -53270, -279440
49498, -453, 1228, 51, 62300, -144970, -251160
49518, -438, 1155, 41, 82530, -243250, -228200
49538, -409, 1051, 15, 85820, -350910, -223370
49558, -385, 945, -13, 76440, -461300, -215600
49578, -373, 857, -32, 76720, -560700, -186620
49598, -361, 781, -47, 98490, -642670, -141890
49618, -356, 719, -62, 129850, -712460, -97440
49638, -338, 655, -94, 158970, -772030, -64330
49658, -321, 627, -122, 185010, -818090, -46410
49678, -318, 655, -134, 220920, -840350, -46620
49698, -330, 754, -133, 267190, -833770, -73710
49718, -359, 905, -121, 303940, -806890, -127050
49738, -392, 1073, -113, 312130, -771190, -192500
49758, -408, 1208, -110, 282520, -734020, -244020
49778, -423, 1304, -82, 229670, -689990, -259910
49798, -427, 1380, -74, 168770, -632590, -245700
49818, -440, 1472, -101, 87150, -571130, -221760
49838, -448, 1565, -111, -12880, -503650, -207480
49858, -430, 1595, -84, -90860, -407540, -209300
49878, -403, 1548, -74, -135800, -279580, -209300
49898, -377, 1453, -118, -195510, -153370, -177030
49918, -368, 1359, -143, -312270, 107730, -138740
49938, -376, 1320, -111, -299320, 280630, -192640
49958, -373, 1248, -106, -298970, 441070, -232890
49978, -359, 1122, -155, -331590, 572600, -231700
49998, -367, 983, -196, -339360, 704480, -208320
50018, -390, 881, -202, -295540, 846720, -173460
50038, -412, 806, -189, -247520, 968520, -120610
50058, -414, 741, -182, -239610, 1044610, -55090
50078, -403, 679, -185, -270830, 1078350, 11200
50098, -387, 623, -183, -317660, 1082410, 70980
50118, -378, 568, -183, -358820, 1066520, 115850
50138, -370, 530, -183, -377930, 1040060, 133770
50158, -389, 529, -177, -357420, 1014790, 109060
50178, -442, 621, -151, -282310, 1001700, 32620
50198, -526, 831, -85, -161770, 995890, -80290
50218, -580, 1104, 36, -43050, 963830, -188580
50238, -564, 1318, 81, -5250, 862540, -240940
50258, -517, 1395, 3, -42140, 706370, -198240
50278, -503, 1370, -44, -19880, 578620, -61460
50298, -551, 1394, 24, 119350, 517230, 89390
50318, -608, 1497, 103, 254520, 452270, 136500
50338, -634, 1665, 118, 287210, 316890, 55580
50358, -582, 1712, 49, 261800, 131950, -37730
50378, -536, 1554, 38, 293160, -29400, 6300
50398, -580, 1440, 101, 397250, -150290, 129710
50418, -615, 1328, 93, 460670, -296520, 133070
50438, -584, 1218, -41, 416710, -505260, -21770
50458, -556, 1135, -150, 373590, -707140, -175420
50478, -575, 1092, -151, 427840, -841750, -232260
50498, -631, 1047, -126, 498540, -954310, -232190
50518, -668, 921, -194, 459830, -1109850, -214060
50538, -668, 738, -302, 344120, -1285340, -170100
50558, -639, 574, -376, 275450, -1413300, -118020
50578, -600, 492, -404, 292320, -1470770, -102200
50598, -565, 480, -414, 339500, -1478820, -136290
50618, -514, 496, -423, 363440, -1461390, -192990
50638, -481, 559, -399, 365190, -1420930, -245840
50658, -461, 681, -353, 359800, -1354920, -286720
50678, -469, 900, -305, 329210, -1275330, -310520
50698, -483, 1221, -304, 271740, -1190490, -289310
50718, -554, 1632, -233, 231140, -1082340, -182980
50738, -617, 1740, -92, 240590, -926800, 28000
50758, -578, 1480, -91, 183470, -791350, 264110
50778, -456, 1271, -198, 19110, -713160, 402430
50798, -380, 1358, -257, -86870, -600180, 391720
50818, -464, 1812, -184, -28490, -371070, 271950
50838, -607, 1997, -53, 67970, -84280, 178150
50858, -547, 1790, -223, -23940, 123830, 271950
50878, -439, 1372, -353, -280700, 240310, 437710
50898, -431, 1198, -337, -394520, 425600, 442820
50918, -498, 1185, -254, -355880, 694050, 298060
50938, -495, 1097, -294, -386610, 918680, 150360
50958, -473, 934, -410, -562870, 1041740, 21630
50978, -510, 786, -471, -701470, 1155840, -108150
50998, -562, 671, -457, -682220, 1319710, -166810
51018, -576, 527, -471, -615510, 1470350, -109480
51038, -574, 438, -492, -614950, 1547630, -17640
51058, -571, 417, -469, -630350, 1577170, 50190
51078, -547, 403, -424, -626150, 1575210, 124600
51098, -505, 347, -412, -635670, 1526210, 214970
51118, -477, 294, -437, -655620, 1438640, 275100
51138, -549, 427, -503, -610050, 1363880, 265370
51158, -814, 928, -529, -412790, 1368150, 190820
51178, -1117, 1567, -238, -56000, 1467550, 120680
51198, -993, 1649, 214, 269150, 1540770, 88760
51218, -590, 1397, 77, 159320, 1349810, -24080
51238, -486, 1436, -80, -248570, 944510, -136080
51258, -613, 1603, -122, -351680, 672350, 42420
51278, -832, 1738, 62, -143290, 566440, 457660
51298, -770, 1610, 291, 105770, 509950, 722610
51318, -599, 1608, 122, 111090, 315350, 458080
51338, -570, 1722, -143, -63000, -35420, 57680
51358, -623, 1586, 95, -42280, -293370, 95200
51378, -791, 1426, 316, 308980, -357280, 422170
51398, -810, 1134, 11, 504560, -493290, 545790
51418, -709, 883, -333, 327530, -846790, 357630
51438, -663, 821, -421, 236740, -1150170, 93030
51458, -739, 934, -390, 456050, -1249570, -129850
51478, -814, 930, -418, 689920, -1304450, -316050
51498, -832, 711, -525, 702940, -1453060, -377090
51518, -828, 497, -595, 604590, -1639680, -282520
51538, -854, 433, -623, 577710, -1765960, -155470
51558, -865, 436, -667, 598010, -1834210, -120680
51578, -828, 436, -712, 564340, -1883490, -162400
51598, -771, 516, -698, 493500, -1903930, -211750
51618, -728, 706, -635, 445970, -1865010, -264040
51638, -662, 943, -601, 405860, -1772960, -333900
51658, -493, 1208, -615, 340410, -1653610, -376250
51678, -455, 1594, -314, 340690, -1482320, -301280
51698, -592, 1679, 22, 541870, -1188600, -38010
51718, -659, 1410, -7, 675640, -913850, 344120
51738, -499, 1155, -267, 451430, -832720, 619500
51758, -333, 1321, -388, 153020, -591500, 290920
51778, -429, 1960, -231, 385840, -205730, -81060
51798, -612, 1997, 29, 468090, 129360, -26880
51818, -579, 1843, -252, 151760, 273700, 375060
51838, -460, 1313, -486, -133490, 442330, 546070
51858, -576, 1316, -405, -62370, 800100, 339010
51878, -709, 1449, -192, -3150, 1140230, 171570
51898, -589, 1220, -315, -337890, 1244460, 154560
51918, -464, 932, -640, -816270, 1237110, 79870
51938, -592, 793, -764, -955010, 1372980, 4690
51958, -739, 691, -710, -809410, 1626240, 52710
51978, -750, 430, -773, -771400, 1782900, 150780
51998, -789, 266, -827, -807660, 1862910, 135520
52018, -859, 373, -716, -731920, 1947610, 89250
52038, -810, 412, -589, -659540, 1966160, 152250
52058, -677, 295, -562, -747530, 1853600, 254100
52078, -571, 165, -598, -860580, 1689870, 261450
52098, -630, 352, -632, -785750, 1597960, 170870
52118, -871, 997, -615, -471030, 1629670, 131810
52138, -1215, 1705, -494, -101570, 1699250, 316330
52158, -1230, 1611, -202, 62930, 1699320, 503790
52178, -808, 1244, -38, -131250, 1502270, 265230
52198, -616, 1320, 161, -303170, 1194900, 1680
52218, -695, 1757, -26, -433020, 860020, 76230
52238, -826, 1808, -208, -533610, 507570, 387660
52258, -730, 1473, 246, -323750, 322070, 543760
52278, -667, 1474, 306, -102270, 149520, 320040
52298, -723, 1671, -103, -231280, -231770, 76860
52318, -630, 1466, -137, -254520, -568610, 86310
52338, -698, 1281, 146, 138950, -666470, 233380
52358, -904, 1221, 57, 402640, -833000, 349720
52378, -955, 942, -291, 355390, -1175020, 373380
52398, -907, 749, -460, 383810, -1463210, 279440
52418, -974, 749, -561, 564760, -1611890, 27650
52438, -1064, 749, -709, 639590, -1753500, -234080
52458, -1068, 641, -854, 591850, -1909600, -371560
52478, -1033, 565, -910, 571480, -2011380, -402010
52498, -980, 533, -918, 609560, -2042810, -409920
52518, -903, 481, -915, 647220, -2030630, -427420
52538, -830, 467, -868, 674240, -1988910, -437430
52558, -790, 540, -778, 694960, -1923740, -445340
52578, -748, 659, -704, 661920, -1856750, -451850
52598, -641, 809, -704, 570920, -1792000, -415310
52618, -492, 1179, -653, 538090, -1679650, -284480
52638, -592, 1722, -261, 704900, -1435630, -34930
52658, -706, 1657, -30, 855540, -1157310, 287560
52678, -571, 1116, -185, 653800, -1050210, 548730
52698, -357, 941, -336, 352590, -1002680, 593530
52718, -333, 1233, -361, 290220, -804930, 323750
52738, -459, 1953, -266, 409780, -465150, -123270
52758, -548, 1997, -73, 517230, -111090, -342510
52778, -477, 1726, -197, 411390, 148750, -69790
52798, -393, 1157, -418, 112700, 336350, 325150
52818, -516, 1121, -443, -21560, 612710, 325220
52838, -725, 1415, -278, 66780, 988120, 93240
52858, -708, 1372, -206, 51170, 1276800, 21210
52878, -510, 1000, -572, -343350, 1344420, 78190
52898, -552, 774, -801, -834050, 1334270, 78540
52918, -749, 712, -814, -948150, 1493310, 78260
52938, -805, 509, -886, -852250, 1724520, 170660
52958, -853, 316, -975, -856940, 1863540, 266490
52978, -960, 381, -913, -875000, 1960630, 244020
52998, -966, 468, -766, -776580, 2064720, 202090
53018, -839, 369, -730, -737310, 2079910, 263270
53038, -735, 241, -771, -864360, 1962310, 319200
53058, -840, 478, -803, -929740, 1835750, 251790
53078, -1137, 1156, -777, -737030, 1828330, 125720
53098, -1393, 1630, -546, -373800, 1914430, 171570
53118, -1158, 1293, -306, -124670, 1945300, 376390
53138, -825, 1146, -152, -224210, 1793820, 317800
53158, -715, 1371, 85, -378700, 1521100, 103740
53178, -756, 1658, -54, -427560, 1226050, 122150
53198, -741, 1533, -136, -573860, 848680, 292880
53218, -626, 1287, 227, -540960, 537740, 410480
53238, -625, 1389, 315, -263480, 363510, 254100
53258, -703, 1571, -2, -199010, 57680, 70350
53278, -649, 1373, -85, -297430, -347550, 5670
53298, -680, 1132, 81, -145390, -620270, 62370
53318, -823, 1014, -26, 185220, -785260, 149800
53338, -929, 817, -279, 299950, -1067850, 226940
53358, -976, 675, -458, 335160, -1386210, 262570
53378, -1083, 677, -629, 467180, -1620360, 173390
53398, -1168, 663, -813, 591360, -1794240, -46970
53418, -1177, 590, -960, 598430, -1966650, -244510
53438, -1137, 555, -1037, 576870, -2100910, -348810
53458, -1075, 569, -1061, 609490, -2157610, -408660
53478, -976, 565, -1052, 666750, -2148790, -469280
53498, -894, 601, -974, 715890, -2095030, -519330
53518, -850, 708, -860, 767690, -2006620, -548800
53538, -775, 830, -782, 781340, -1915060, -560350
53558, -623, 1026, -751, 720510, -1843170, -514990
53578, -582, 1459, -478, 682920, -1746290, -350700
53598, -759, 1611, -130, 876400, -1322580, 335720
53618, -736, 1222, -148, 651140, -1249150, 586040
53638, -517, 879, -313, 375690, -1202810, 594860
53658, -342, 928, -380, 295820, -1024590, 321580
53678, -329, 1308, -383, 370860, -707210, -118160
53698, -406, 1962, -249, 471240, -343770, -381710
53718, -451, 1997, -65, 475090, -15890, -209300
53738, -377, 1424, -159, 235970, 201880, 197400
53758, -292, 918, -364, -18900, 415100, 299390
53778, -406, 901, -414, -37450, 739830, 83650
53798, -625, 1222, -295, 64820, 1098160, -78960
53818, -662, 1246, -178, -54810, 1311590, -15260
53838, -471, 853, -548, -522060, 1331330, 63840
53858, -528, 636, -777, -882490, 1381520, 47040
53878, -751, 721, -790, -857430, 1597680, 56140
53898, -846, 635, -831, -751870, 1812160, 187740
53918, -869, 454, -960, -812700, 1909180, 303030
53938, -960, 447, -993, -860230, 1982820, 283990
53958, -1047, 623, -841, -770770, 2079070, 259840
53978, -960, 553, -811, -777280, 2077950, 327040
53998, -894, 433, -894, -913080, 1970430, 324310
54018, -1091, 721, -912, -852670, 1937880, 161140
54038, -1350, 1227, -740, -510300, 2041130, 48160
54058, -1249, 1214, -368, -238980, 2068780, 143710
54078, -934, 1069, -290, -313880, 1880620, 150710
54098, -836, 1328, -164, -450030, 1607130, 51730
54118, -820, 1577, -23, -426720, 1354640, 161560
54138, -782, 1478, -113, -491610, 1038240, 388850
54158, -623, 1159, 20, -505540, 723450, 480340
54178, -541, 1108, 248, -306040, 511910, 288190
54198, -589, 1334, 286, -175630, 239260, 86800
54218, -640, 1419, 43, -211540, -135800, -280
54238, -598, 1153, -3, -167370, -479430, 48510
54258, -642, 921, 65, 86030, -702240, 131810
54278, -767, 821, -63, 276360, -951160, 178640
54298, -904, 709, -315, 320880, -1259090, 164780
54318, -976, 644, -514, 375900, -1534680, 105140
54338, -1062, 667, -666, 483420, -1732920, -36330
54358, -1117, 663, -810, 551670, -1885310, -219660
54378, -1085, 571, -942, 562800, -2013340, -335510
54398, -1013, 503, -1006, 604730, -2080960, -372050
54418, -960, 551, -996, 716380, -2070880, -395080
54438, -933, 642, -962, 823760, -2019640, -444430
54458, -896, 749, -912, 859740, -1967560, -490420
54478, -865, 935, -825, 842310, -1912820, -495390
54498, -819, 1199, -715, 798280, -1844710, -429450
54518, -797, 1440, -500, 752010, -1749860, -247240
54538, -780, 1323, -316, 715610, -1622040, 56980
54558, -709, 1077, -268, 635670, -1500940, 367990
54578, -575, 940, -296, 503720, -1400140, 514220
54598, -421, 957, -347, 385840, -1269590, 446740
54618, -308, 1157, -370, 334110, -1060780, 215740
54638, -291, 1490, -286, 366590, -757470, -61320
54658, -316, 1665, -95, 447370, -395990, -189420
54678, -307, 1406, -64, 426580, -78680, -55230
54698, -252, 1045, -210, 211960, 140070, 169400
54718, -268, 859, -343, -20720, 350840, 219030
54738, -421, 978, -350, -83860, 646870, 90160
54758, -577, 1118, -243, -37870, 982030, -16100
54778, -529, 901, -366, -128240, 1220730, 21490
54798, -485, 625, -604, -459060, 1314670, 75180
54818, -620, 581, -731, -745220, 1405110, 39480
54838, -798, 682, -745, -765240, 1594390, 7490
54858, -879, 662, -795, -674800, 1794310, 86170
54878, -916, 601, -900, -700420, 1901410, 217280
54898, -1000, 701, -899, -792260, 1948940, 265720
54918, -1035, 765, -836, -799050, 2004030, 265160
54938, -999, 655, -870, -812280, 2018520, 302400
54958, -1080, 661, -881, -877800, 1971550, 269640
54978, -1258, 968, -672, -770350, 1984430, 94430
54998, -1188, 1119, -375, -480480, 2051350, -32830
55018, -966, 1125, -252, -307300, 1991220, -10150
55038, -848, 1349, -231, -375270, 1762110, 13160
55058, -829, 1542, -132, -453950, 1495620, 55860
55078, -767, 1390, -66, -422170, 1261400, 246960
55098, -618, 1072, 17, -405860, 1009400, 454440
55118, -514, 980, 172, -360920, 748300, 463820
55138, -502, 1087, 262, -239960, 503930, 265020
55158, -546, 1245, 192, -147490, 216300, 75600
55178, -559, 1119, 60, -125860, -124880, 3360
55198, -568, 892, 40, -56770, -450520, 60760
55218, -672, 748, -11, 131880, -706090, 142240
55238, -794, 684, -186, 295050, -957810, 150150
55258, -898, 620, -408, 336770, -1244530, 85890
55278, -973, 614, -585, 347410, -1513610, 420
55298, -1032, 685, -719, 406980, -1715910, -101010
55318, -1016, 703, -839, 484400, -1850100, -232750
55338, -907, 631, -912, 541170, -1935150, -336210
55358, -820, 627, -880, 634620, -1956360, -355670
55378, -825, 711, -795, 806890, -1903020, -328580
55398, -866, 820, -734, 949130, -1837150, -322560
55418, -902, 985, -698, 946680, -1822660, -325780
55438, -947, 1257, -632, 697130, -1822590, -187180
55458, -935, 1415, -547, 575540, -1753570, -66150
55478, -766, 1226, -485, 448630, -1655290, 61250
55498, -580, 996, -389, 391860, -1501710, 214340
55518, -450, 968, -305, 407680, -1299690, 311500
55538, -415, 1122, -213, 421540, -1070300, 291480
55558, -349, 1225, -230, 357630, -850220, 195230
55578, -256, 1260, -224, 285950, -604730, 91210
55598, -211, 1230, -163, 275240, -303800, 55650
55618, -223, 1178, -88, 249200, -1610, 94290
55638, -233, 1042, -115, 120400, 245560, 152180
55658, -242, 907, -213, -66500, 457660, 160160
55678, -310, 847, -322, -198590, 689990, 111230
55698, -436, 885, -347, -250880, 947660, 69090
55718, -524, 843, -383, -312480, 1179360, 70070
55738, -550, 675, -502, -455700, 1343020, 73570
55758, -630, 583, -605, -581910, 1485260, 25480
55778, -755, 656, -641, -593110, 1643950, -19250
55798, -851, 780, -630, -559160, 1780520, 26880
55818, -876, 834, -673, -619010, 1835190, 148260
55838, -881, 852, -764, -763280, 1821190, 234780
55858, -929, 873, -800, -847210, 1812230, 247450
55878, -979, 812, -763, -817810, 1837780, 228410
55898, -1025, 735, -661, -721000, 1866900, 153370
55918, -1060, 824, -518, -568470, 1880270, 4270
55938, -1034, 1064, -305, -389970, 1847930, -114170
55958, -902, 1267, -127, -283570, 1717660, -110180
55978, -766, 1365, -138, -333480, 1473780, -8400
55998, -691, 1325, -152, -403130, 1207080, 149170
56018, -644, 1206, -36, -337050, 1004570, 323190
56038, -584, 1066, 111, -208250, 823760, 424410
56058, -514, 981, 210, -132580, 594510, 370930
56078, -458, 988, 220, -112700, 311570, 188720
56098, -452, 1024, 151, -93800, 3430, 35350
56118, -473, 973, 79, -20440, -289100, 14420
56138, -533, 850, 61, 133630, -541100, 89040
56158, -634, 785, 10, 292250, -773990, 129990
56178, -742, 733, -152, 344890, -1033760, 81900
56198, -821, 665, -359, 309260, -1306550, -4340
56218, -857, 634, -515, 306460, -1526490, -83580
56238, -872, 682, -619, 381920, -1663340, -164570
56258, -839, 733, -701, 483700, -1735510, -246680
56278, -751, 731, -736, 593530, -1758610, -279160
56298, -703, 763, -672, 748580, -1726620, -237370
56318, -753, 849, -570, 901670, -1668310, -179550
56338, -849, 977, -517, 921130, -1654170, -158270
56358, -920, 1137, -553, 774690, -1696310, -149170
56378, -898, 1234, -559, 561400, -1728650, -118860
56398, -757, 1237, -521, 401240, -1682100, -108570
56418, -566, 1137, -437, 301280, -1562330, -123060
56438, -415, 1043, -340, 264040, -1384250, -53270
56458, -374, 1126, -200, 301280, -1163400, 95340
56478, -401, 1245, -94, 347970, -928130, 223090
56498, -357, 1214, -132, 283010, -733390, 269150
56518, -229, 1082, -185, 125860, -570920, 230650
56538, -159, 997, -166, 38920, -354200, 155400
56558, -176, 1001, -110, 53270, -72450, 105700
56578, -231, 981, -89, 49980, 201320, 115920
56598, -262, 889, -186, -61390, 414260, 157220
56618, -292, 794, -303, -238280, 586390, 148680
56638, -386, 788, -353, -351260, 777700, 74760
56658, -490, 807, -341, -347550, 1008210, 3570
56678, -544, 742, -393, -334740, 1215760, 8050
56698, -601, 690, -501, -414750, 1349110, 44520
56718, -712, 796, -552, -504420, 1452920, 40740
56738, -814, 982, -498, -499380, 1571150, 34020
56758, -812, 961, -517, -488040, 1659280, 119980
56778, -750, 822, -613, -622860, 1648080, 233940
56798, -779, 777, -630, -775110, 1600970, 217280
56818, -883, 867, -488, -743190, 1622110, 114450
56838, -896, 911, -376, -587510, 1671670, 49700
56858, -883, 1005, -324, -485940, 1648850, -16590
56878, -861, 1231, -176, -418250, 1570030, -137550
56898, -740, 1320, -26, -286720, 1479240, -186550
56918, -615, 1201, -57, -226870, 1311590, -60690
56938, -548, 1090, -93, -290640, 1063440, 131950
56958, -531, 1065, 33, -263550, 856310, 255150
56978, -516, 1070, 225, -84700, 720930, 291690
56998, -480, 1035, 270, 54180, 549010, 261240
57018, -431, 955, 158, 26320, 269500, 171710
57038, -398, 862, 63, -45850, -52290, 74830
57058, -433, 793, 62, 15680, -314860, 38010
57078, -520, 804, 63, 200130, -511350, 49350
57098, -631, 799, -36, 346010, -713370, 44870
57118, -707, 739, -225, 353990, -961590, 5390
57138, -738, 683, -378, 292040, -1217090, -39200
57158, -743, 697, -460, 294490, -1405810, -80850
57178, -730, 730, -519, 381430, -1509480, -139650
57198, -678, 727, -565, 480830, -1562890, -196980
57218, -634, 765, -554, 576450, -1583890, -198870
57238, -681, 901, -476, 701540, -1563100, -147630
57258, -786, 1110, -416, 809830, -1520120, -110250
57278, -851, 1279, -455, 615510, -1544130, -143570
57298, -788, 1269, -483, 423990, -1539580, -143290
57318, -660, 1234, -418, 316890, -1449490, -162120
57338, -534, 1200, -342, 252770, -1308650, -154070
57358, -440, 1194, -284, 208810, -1146460, -52990
57378, -410, 1250, -187, 208600, -956270, 92470
57398, -397, 1268, -108, 199710, -757470, 197960
57418, -325, 1174, -112, 110250, -587790, 220150
57438, -226, 1047, -144, 5810, -413280, 188300
57458, -171, 965, -148, -34370, -196000, 151970
57478, -190, 984, -115, -23450, 53900, 134050
57498, -234, 982, -103, -51730, 282940, 141540
57518, -271, 931, -158, -154420, 469280, 145320
57538, -289, 843, -242, -277410, 635670, 113470
57558, -344, 802, -289, -343700, 815010, 63350
57578, -415, 784, -305, -352520, 1003170, 44590
57598, -475, 742, -347, -380870, 1156680, 66850
57618, -521, 691, -414, -442750, 1269240, 85890
57638, -588, 718, -445, -480060, 1368290, 80150
57658, -653, 793, -422, -477050, 1456140, 88760
57678, -676, 816, -411, -504000, 1498490, 136010
57698, -660, 774, -438, -586740, 1485330, 165270
57718, -660, 746, -452, -641130, 1460690, 126140
57738, -731, 835, -380, -588140, 1463490, 48580
57758, -767, 938, -262, -465360, 1468810, -19180
57778, -732, 974, -183, -375970, 1421490, -76860
57798, -676, 1047, -122, -322770, 1321740, -133910
57818, -645, 1207, -58, -249550, 1199380, -133490
57838, -635, 1326, -26, -174020, 1055530, -38290
57858, -612, 1314, -1, -116900, 894880, 90860
57878, -556, 1225, 77, -47040, 738220, 162680
57898, -507, 1171, 160, 36890, 575120, 160860
57918, -481, 1170, 177, 83860, 370580, 134120
57938, -478, 1169, 137, 103110, 133700, 112840
57958, -481, 1147, 107, 157080, -92260, 98140
57978, -502, 1078, 100, 256130, -291760, 77140
57998, -534, 1001, 44, 334810, -494620, 43750
58018, -576, 927, -56, 359730, -713650, -3150
58038, -622, 878, -155, 368340, -922600, -61600
58058, -672, 857, -240, 381500, -1101450, -132720
58078, -692, 833, -329, 384650, -1253350, -192080
58098, -679, 777, -408, 384440, -1376480, -208530
58118, -649, 714, -436, 419510, -1453480, -177660
58138, -627, 677, -435, 496790, -1483370, -128660
58158, -620, 682, -424, 572110, -1488060, -95130
58178, -635, 739, -414, 603890, -1486940, -89460
58198, -668, 879, -405, 580930, -1481060, -109200
58218, -681, 1044, -401, 504700, -1464610, -153930
58238, -633, 1160, -402, 389970, -1428980, -205380
58258, -539, 1204, -358, 280140, -1355970, -216300
58278, -471, 1240, -258, 231910, -1227730, -148260
58298, -465, 1319, -160, 236600, -1063090, -7770
58318, -500, 1412, -130, 219590, -905590, 157710
58338, -469, 1430, -168, 142660, -768740, 277760
58358, -374, 1391, -182, 60060, -618030, 292530
58378, -320, 1393, -132, 38360, -413280, 227220
58398, -340, 1425, -92, 49210, -173810, 195790
58418, -372, 1370, -118, 6790, 44030, 246680
58438, -347, 1201, -199, -107380, 224980, 302330
58458, -338, 1079, -233, -222600, 402360, 280560
58478, -378, 1020, -242, -285390, 601720, 213780
58498, -414, 938, -288, -340760, 792960, 171430
58518, -438, 814, -358, -434630, 945560, 143780
58538, -474, 705, -394, -521500, 1079470, 83720
58558, -518, 641, -387, -541030, 1220590, 8820
58578, -541, 584, -388, -520590, 1348340, -23100
58598, -554, 559, -401, -525490, 1425970, -4970
58618, -559, 578, -395, -549360, 1458520, 29470
58638, -559, 597, -381, -561890, 1462510, 79800
58658, -557, 596, -382, -573510, 1437800, 147840
58678, -581, 621, -387, -580300, 1390760, 194180
58698, -673, 747, -370, -536200, 1354990, 175770
58718, -777, 947, -224, -402920, 1358070, 85400
58738, -731, 1046, -6, -206570, 1374380, -34930
58758, -586, 1052, 58, -95270, 1303960, -129290
58778, -512, 1149, -13, -147770, 1107890, -163170
58798, -547, 1369, -77, -199010, 887110, -109760
58818, -628, 1508, 39, -99680, 740600, 42280
58838, -641, 1439, 191, 100450, 659680, 230650
58858, -561, 1332, 170, 191030, 524510, 293090
58878, -501, 1349, 72, 129430, 285180, 179130
58898, -525, 1470, 63, 119420, 45850, 65380
58918, -607, 1474, 148, 255500, -122430, 89810
58938, -647, 1317, 109, 419370, -269430, 188370
58958, -625, 1125, -61, 450310, -477890, 193480
58978, -618, 1049, -191, 393610, -724010, 70700
58998, -662, 1096, -233, 407330, -912310, -86870
59018, -722, 1147, -255, 493710, -1035580, -216090
59038, -751, 1087, -312, 535430, -1157030, -287000
59058, -749, 935, -373, 489720, -1299970, -269710
59078, -739, 801, -397, 434490, -1423590, -187110
59098, -714, 691, -420, 421050, -1502270, -111580
59118, -659, 573, -459, 413630, -1576330, -67760
59138, -604, 531, -461, 424550, -1564780, -78260
59158, -575, 581, -430, 436870, -1518370, -124530
59178, -562, 706, -393, 402150, -1459360, -193410
59198, -522, 842, -390, 315350, -1396290, -237510
59218, -461, 986, -384, 249970, -1300950, -206430
59238, -437, 1216, -291, 285530, -1139390, -94570
59258, -474, 1451, -121, 359380, -943180, 67410
59278, -528, 1464, -59, 309680, -797860, 257040
59298, -468, 1313, -153, 144830, -708260, 397320
59318, -367, 1251, -210, 60270, -566160, 390670
59338, -351, 1455, -169, 115500, -322630, 251440
59358, -467, 1834, -69, 173320, -53060, 155400
59378, -554, 1908, -120, 83090, 148190, 234710
59398, -533, 1667, -264, -112070, 297010, 381430
59418, -488, 1413, -293, -230300, 486360, 395010
59438, -518, 1348, -247, -264880, 715260, 299250
59458, -550, 1313, -290, -375340, 888650, 228900
59478, -545, 1208, -425, -568680, 994350, 159250
59498, -572, 1062, -474, -686350, 1114960, 48720
59518, -598, 864, -445, -665980, 1283310, -40810
59538, -603, 659, -466, -642040, 1419320, -74690
59558, -624, 533, -492, -632380, 1511090, -106470
59578, -674, 588, -442, -565670, 1590540, -114030
59598, -659, 636, -387, -492170, 1626660, -32690
59618, -608, 604, -368, -511490, 1580880, 108780
59638, -535, 500, -393, -594790, 1480920, 221970
59658, -500, 434, -407, -637140, 1383830, 253750
59678, -529, 469, -376, -549640, 1334340, 235620
59698, -585, 586, -289, -346710, 1326500, 213290
59718, -623, 711, -171, -134890, 1310400, 194180
59738, -634, 862, -45, 910, 1243900, 141820
59758, -636, 1125, 82, 52290, 1115170, 38220
59778, -620, 1453, 165, 40250, 923650, -54320
59798, -562, 1535, 119, -21700, 674940, -6650
59818, -528, 1324, 44, -75320, 418740, 207550
59838, -551, 1278, 91, 7070, 237090, 421190
59858, -626, 1444, 191, 183820, 116340, 427910
59878, -680, 1706, 129, 280490, -49770, 243530
59898, -647, 1755, -75, 251020, -294910, 90580
59918, -630, 1612, -21, 326830, -476490, 162960
59938, -744, 1567, 95, 567070, -542500, 305690
59958, -844, 1528, -63, 653870, -681590, 256410
59978, -790, 1419, -351, 527100, -934990, 35280
59998, -768, 1395, -385, 497280, -1105160, -186690
60018, -818, 1420, -285, 624260, -1151220, -329630
60038, -848, 1251, -319, 636720, -1241940, -367780
60058, -840, 992, -411, 478940, -1410080, -279790
60078, -815, 820, -445, 347900, -1546370, -147000
60098, -761, 708, -464, 318430, -1609510, -75600
60118, -671, 565, -492, 318780, -1631630, -64470
60138, -569, 440, -478, 337890, -1618890, -58730
60158, -505, 405, -417, 397880, -1563240, -59500
60178, -475, 430, -356, 440300, -1489740, -90720
60198, -448, 491, -323, 393960, -1429820, -136150
60218, -396, 553, -338, 273070, -1379420, -152670
60238, -327, 672, -364, 163800, -1305710, -116690
60258, -324, 1051, -340, 171430, -1162210, -49000
60278, -451, 1761, -143, 317800, -928550, 4760
60298, -583, 1890, 25, 465850, -659750, 98490
60318, -472, 1455, -117, 374010, -494270, 324660
60338, -357, 1239, -237, 126560, -415310, 522690
60358, -424, 1571, -216, 70140, -227570, 484260
60378, -655, 1997, -83, 185080, 75950, 249620
60398, -790, 1997, -155, 205450, 346430, 119910
60418, -683, 1954, -475, -69790, 466760, 279370
60438, -674, 1585, -509, -370930, 577990, 506450
60458, -768, 1520, -384, -391510, 840560, 513030
60478, -735, 1433, -369, -395220, 1098720, 345240
60498, -656, 1303, -484, -589260, 1212820, 104230
60518, -668, 1127, -543, -799610, 1272250, -129780
60538, -699, 858, -585, -849310, 1387050, -225820
60558, -763, 680, -626, -794710, 1526910, -196560
60578, -833, 666, -599, -696780, 1655290, -155960
60598, -827, 684, -511, -556710, 1766800, -104230
60618, -732, 586, -454, -473760, 1808310, 20510
60638, -607, 427, -436, -531300, 1742090, 169330
60658, -507, 306, -414, -654220, 1610910, 259140
60678, -452, 270, -365, -712250, 1473780, 284550
60698, -428, 301, -303, -649740, 1354780, 300720
60718, -421, 378, -241, -495740, 1249640, 341670
60738, -433, 514, -175, -299460, 1152410, 406560
60758, -471, 698, -120, -94990, 1065750, 469350
60778, -588, 1020, 10, 99050, 995610, 489510
60798, -773, 1556, 306, 260610, 931210, 419650
60818, -749, 1997, 310, 294490, 800800, 210910
60838, -585, 1758, -80, 45570, 473690, -45290
60858, -533, 1302, -55, -295890, 52780, 23870
60878, -690, 1455, 164, -192080, -135660, 444920
60898, -973, 1939, 241, 201950, -157430, 695870
60918, -861, 1997, -279, 346850, -303800, 492100
60938, -588, 1788, -301, 171850, -650580, 119560
60958, -813, 1908, 151, 807870, -657230, 405790
60978, -1114, 1830, 33, 845600, -796180, 404670
60998, -964, 1481, -529, 499590, -1177750, 119980
61018, -871, 1387, -569, 499730, -1326150, -225680
61038, -926, 1547, -433, 705880, -1305780, -492030
61058, -912, 1465, -419, 661290, -1402450, -526540
61078, -851, 1076, -475, 484260, -1554140, -285250
61098, -839, 805, -417, 443870, -1628340, -19250
61118, -854, 650, -414, 444080, -1678250, 79590
61138, -811, 435, -499, 359380, -1752800, 93940
61158, -706, 242, -547, 306250, -1787660, 101010
61178, -608, 202, -510, 328370, -1747270, 62790
61198, -537, 294, -435, 317310, -1664950, -36540
61218, -475, 384, -385, 197470, -1575070, -135170
61238, -383, 406, -389, 21070, -1476790, -162470
61258, -253, 347, -437, -84770, -1346730, -110110
61278, -130, 476, -518, 17010, -1131620, -46690
61298, -255, 1496, -579, 397950, -766430, -92750
61318, -877, 1997, 314, 888650, -300580, -113610
61338, -833, 1997, -57, 662410, -186550, 277760
61358, -389, 1091, -434, -39970, -336700, 733180
61378, -252, 1002, -414, -15260, -113820, 617190
61398, -565, 1744, -97, 431550, 371630, 171010
61418, -1034, 1997, 158, 445620, 620830, -14630
61438, -753, 1997, -841, -148820, 549150, 131040
61458, -727, 1700, -625, -555240, 627970, 468720
61478, -815, 1298, -567, -371140, 1065680, 637980
61498, -815, 1034, -554, -437430, 1329440, 556990
61518, -836, 977, -573, -624540, 1456490, 125510
61538, -931, 1231, -335, -634760, 1595860, -334180
61558, -726, 1005, -423, -665630, 1674470, -437290
61578, -640, 691, -623, -879130, 1628900, -372750
61598, -725, 660, -616, -908740, 1662220, -284410
61618, -732, 657, -533, -735140, 1753220, -71610
61638, -655, 515, -528, -708890, 1718850, 222110
61658, -536, 306, -536, -807870, 1580390, 408800
61678, -477, 225, -496, -831950, 1444170, 450520
61698, -474, 276, -443, -708050, 1358140, 433020
61718, -516, 443, -381, -473410, 1311170, 448420
61738, -580, 663, -337, -195790, 1279600, 518140
61758, -688, 904, -285, 61320, 1261960, 580930
61778, -851, 1205, -65, 254800, 1261960, 528640
61798, -889, 1635, 364, 327390, 1205750, 272160
61818, -656, 1909, 320, 121870, 919170, -79870
61838, -542, 1660, -142, -351540, 415730, -157990
61858, -554, 1271, -121, -512680, 60200, 240380
61878, -749, 1437, 255, -118090, 1610, 690130
61898, -949, 1868, 307, 250110, -45640, 672560
61918, -794, 1962, -345, 116830, -382410, 216300
61938, -511, 1553, -286, -98560, -769370, -27580
61958, -672, 1585, 186, 363930, -724360, 269150
61978, -1078, 1596, 232, 839020, -650860, 533540
61998, -1028, 1203, -411, 648480, -970270, 474110
62018, -867, 1005, -617, 323400, -1383200, 195860
62038, -922, 1164, -557, 476980, -1476160, -180740
62058, -913, 1204, -558, 682640, -1471190, -524230
62078, -792, 910, -612, 626360, -1570800, -603540
62098, -727, 632, -565, 563990, -1664810, -387800
62118, -757, 528, -480, 640780, -1685320, -137060
62138, -785, 438, -506, 687120, -1710030, -30730
62158, -760, 323, -573, 606200, -1780940, 5390
