T [ms],AccX [mg],AccY [mg],AccZ [mg],GyroX [mdps],GyroY [mdps],GyroZ [mdps]
10471, -102, 11, 1020, 2450, -210, 1820
10491, -101, 12, 1020, 2450, -210, 1820
10511, -101, 11, 1020, 2450, -210, 1820
10531, -101, 13, 1020, 2450, -210, 1890
10551, -101, 10, 1021, 2450, -210, 1820
10571, -101, 11, 1020, 2450, -210, 1890
10591, -103, 13, 1019, 2520, -210, 1890
10611, -101, 11, 1020, 2450, -210, 1890
10631, -102, 11, 1021, 2450, -210, 1820
10651, -102, 12, 1020, 2450, -210, 1820
10671, -104, 10, 1017, 2450, -210, 1820
10691, -104, 11, 1018, 2450, -210, 1890
10711, -103, 12, 1019, 2450, -210, 1820
10731, -104, 12, 1021, 2450, -210, 1820
10751, -102, 10, 1020, 2450, -210, 1820
10771, -103, 11, 1019, 2450, -210, 1890
10791, -103, 12, 1020, 2450, -210, 1820
10811, -101, 10, 1019, 2450, -210, 1820
10831, -102, 12, 1019, 2450, -210, 1820
10851, -102, 11, 1019, 2450, -210, 1890
10871, -103, 12, 1019, 2450, -210, 1890
10891, -102, 12, 1020, 2450, -210, 1820
10911, -103, 11, 1017, 2450, -210, 1890
10931, -103, 12, 1020, 2450, -210, 1890
10951, -103, 12, 1020, 2450, -210, 1890
10971, -102, 13, 1019, 2450, -210, 1890
10991, -102, 13, 1022, 2450, -210, 1820
11011, -101, 11, 1019, 2450, -210, 1890
11031, -103, 10, 1020, 2450, -210, 1820
11051, -102, 10, 1018, 2520, -210, 1890
11071, -102, 11, 1020, 2450, -210, 1890
11091, -102, 10, 1019, 2450, -210, 1820
11111, -102, 9, 1020, 2450, -210, 1820
11131, -103, 12, 1019, 2450, -210, 1890
11151, -103, 11, 1020, 2450, -210, 1890
11171, -104, 10, 1022, 2450, -210, 1890
11191, -102, 10, 1019, 2450, -210, 1820
11211, -102, 12, 1020, 2450, -210, 1820
11231, -100, 11, 1020, 2450, -210, 1890
11251, -102, 12, 1020, 2520, -210, 1820
11271, -101, 11, 1019, 2520, -210, 1820
11291, -103, 12, 1020, 2520, -210, 1820
11311, -103, 11, 1019, 2450, -210, 1890
11331, -102, 11, 1020, 2450, -210, 1820
11351, -104, 10, 1018, 2450, -210, 1820
11371, -103, 12, 1021, 2450, -210, 1890
11391, -102, 11, 1019, 2450, -210, 1820
11411, -102, 13, 1018, 2450, -210, 1890
11431, -102, 11, 1021, 2450, -210, 1820
11451, -101, 12, 1019, 2450, -210, 1890
11471, -103, 11, 1019, 2450, -210, 1820
11491, -103, 11, 1018, 2450, -210, 1890
11511, -97, 12, 1020, 2450, -210, 1820
11531, -105, 11, 1019, 2450, -210, 1820
11551, -101, 13, 1019, 2450, -210, 1890
11571, -100, 12, 1023, 2450, -210, 1890
11591, -98, 14, 1017, 2450, -210, 1820
11611, -105, 12, 1018, 2450, -210, 1890
11631, -102, 12, 1020, 2450, -210, 1820
11651, -101, 13, 1023, 2450, -210, 1890
11671, -104, 13, 1021, 2450, -210, 1890
11691, -104, 12, 1019, 2450, -210, 1820
11711, -101, 12, 1018, 2450, -210, 1820
11731, -103, 10, 1020, 2450, -210, 1820
11751, -101, 12, 1022, 2450, -210, 1820
11771, -102, 13, 1017, 2450, -210, 1890
11791, -104, 11, 1020, 2450, -210, 1820
11811, -104, 10, 1018, 2450, -210, 1820
11831, -103, 10, 1020, 2520, -210, 1820
11851, -102, 11, 1019, 2450, -210, 1890
11871, -101, 11, 1020, 2450, -210, 1890
11891, -102, 11, 1019, 2450, -210, 1890
11911, -102, 12, 1018, 2450, -210, 1890
11931, -101, 10, 1021, 2450, -210, 1890
11951, -103, 11, 1019, 2450, -210, 1820
11971, -103, 12, 1021, 2450, -210, 1890
11991, -102, 11, 1019, 2520, -210, 1890
12011, -103, 12, 1020, 2450, -210, 1890
12031, -103, 12, 1019, 2450, -210, 1890
12051, -101, 12, 1018, 2450, -140, 1820
12071, -101, 12, 1020, 2450, -210, 1890
12091, -101, 13, 1019, 2450, -210, 1890
12111, -101, 12, 1020, 2450, -210, 1890
12131, -101, 12, 1019, 2450, -210, 1820
12151, -102, 11, 1021, 2450, -210, 1820
12171, -102, 11, 1020, 2450, -210, 1820
12191, -103, 12, 1019, 2450, -210, 1890
12211, -102, 11, 1017, 2450, -210, 1890
12231, -103, 11, 1020, 2450, -140, 1890
12251, -103, 12, 1018, 2450, -210, 1890
12271, -101, 12, 1021, 2450, -210, 1820
12291, -101, 10, 1018, 2450, -210, 1890
12311, -101, 11, 1019, 2450, -210, 1890
12331, -101, 11, 1021, 2450, -210, 1890
12351, -101, 11, 1021, 2450, -210, 1820
12371, -101, 12, 1019, 2450, -210, 1820
12391, -103, 10, 1019, 2450, -210, 1890
12411, -104, 11, 1020, 2450, -210, 1890
12431, -104, 10, 1021, 2450, -210, 1820
12451, -103, 11, 1020, 2450, -210, 1820
12471, -103, 12, 1021, 2450, -210, 1890
12491, -102, 12, 1020, 2450, -210, 1820
12511, -101, 11, 1019, 2450, -210, 1820
12531, -101, 11, 1021, 2450, -210, 1890
12551, -102, 11, 1018, 2450, -210, 1820
12571, -103, 11, 1020, 2450, -210, 1890
12591, -100, 11, 1018, 2450, -210, 1820
12611, -102, 12, 1020, 2450, -210, 1820
12631, -104, 11, 1019, 2450, -210, 1820
12651, -104, 10, 1020, 2450, -210, 1820
12671, -102, 11, 1019, 2450, -210, 1890
12691, -102, 11, 1018, 2450, -210, 1890
12711, -102, 12, 1019, 2450, -210, 1890
12731, -103, 12, 1019, 2450, -210, 1820
12751, -102, 12, 1019, 2450, -210, 1820
12771, -103, 12, 1018, 2450, -210, 1890
12791, -101, 12, 1019, 2450, -140, 1820
12811, -101, 10, 1020, 2450, -210, 1820
12831, -103, 12, 1018, 2450, -210, 1820
12851, -103, 10, 1022, 2450, -210, 1820
12871, -101, 13, 1019, 2450, -210, 1890
12891, -101, 10, 1019, 2450, -210, 1890
12911, -102, 11, 1021, 2450, -210, 1890
12931, -102, 10, 1019, 2450, -210, 1820
12951, -104, 12, 1018, 2450, -210, 1820
12971, -102, 12, 1017, 2450, -210, 1820
12991, -101, 11, 1018, 2450, -210, 1820
13011, -103, 11, 1018, 2450, -210, 1820
13031, -102, 10, 1021, 2450, -210, 1890
13051, -101, 11, 1018, 2450, -210, 1820
13071, -103, 11, 1019, 2450, -210, 1890
13091, -101, 13, 1019, 2450, -210, 1890
13111, -103, 12, 1019, 2450, -210, 1890
13131, -101, 13, 1021, 2450, -210, 1820
13151, -104, 12, 1019, 2450, -210, 1820
13171, -102, 12, 1020, 2450, -210, 1890
13191, -101, 12, 1020, 2450, -210, 1890
13211, -101, 12, 1018, 2450, -210, 1890
13231, -103, 11, 1018, 2450, -210, 1820
13251, -101, 10, 1020, 2450, -140, 1820
13271, -101, 11, 1018, 2450, -210, 1890
13291, -103, 11, 1019, 2450, -210, 1820
13311, -101, 10, 1019, 2450, -210, 1820
13331, -103, 12, 1020, 2450, -210, 1820
13351, -102, 11, 1021, 2450, -210, 1820
13371, -103, 11, 1018, 2380, -210, 1820
13391, -102, 12, 1020, 2450, -210, 1890
13411, -102, 11, 1021, 2450, -210, 1820
13431, -101, 12, 1019, 2450, -210, 1820
13451, -103, 12, 1019, 2450, -210, 1890
13471, -102, 10, 1020, 2450, -210, 1820
13491, -101, 11, 1018, 2450, -210, 1890
13511, -103, 11, 1020, 2450, -210, 1890
13531, -102, 14, 1019, 2450, -210, 1820
13551, -102, 12, 1018, 2450, -210, 1820
13571, -102, 11, 1020, 2450, -210, 1890
13591, -102, 10, 1019, 2450, -210, 1890
13611, -102, 12, 1019, 2450, -210, 1890
13631, -102, 11, 1019, 2450, -210, 1820
13651, -103, 12, 1019, 2450, -210, 1820
13671, -103, 13, 1019, 2450, -210, 1820
13691, -102, 11, 1019, 2450, -210, 1890
13711, -102, 12, 1018, 2450, -140, 1820
13731, -101, 12, 1020, 2450, -210, 1820
13751, -103, 11, 1020, 2450, -210, 1820
13771, -102, 10, 1018, 2450, -210, 1890
13791, -104, 11, 1019, 2450, -210, 1890
13811, -103, 9, 1019, 2450, -210, 1890
13831, -102, 11, 1019, 2450, -210, 1890
13851, -102, 11, 1019, 2450, -210, 1820
13871, -101, 11, 1020, 2450, -210, 1820
13891, -102, 12, 1019, 2450, -210, 1820
13911, -103, 10, 1019, 2450, -210, 1890
13931, -100, 11, 1019, 2450, -210, 1820
13951, -101, 11, 1020, 2450, -210, 1820
13971, -102, 12, 1018, 2450, -210, 1820
13991, -102, 11, 1022, 2450, -210, 1820
14011, -102, 12, 1018, 2450, -210, 1890
14031, -102, 11, 1020, 2450, -210, 1820
14051, -103, 11, 1017, 2520, -210, 1820
14071, -103, 10, 1020, 2450, -210, 1820
14091, -102, 11, 1019, 2450, -210, 1890
14111, -101, 11, 1020, 2450, -210, 1820
14131, -102, 11, 1019, 2450, -210, 1890
14151, -102, 10, 1018, 2450, -210, 1890
14171, -101, 12, 1018, 2450, -210, 1890
14191, -102, 11, 1020, 2450, -210, 1890
14211, -103, 11, 1020, 2450, -210, 1890
14231, -103, 12, 1019, 2450, -210, 1820
14251, -102, 11, 1021, 2450, -210, 1820
14271, -101, 10, 1021, 2450, -210, 1820
14291, -105, 10, 1019, 2450, -210, 1890
14311, -103, 10, 1018, 2450, -210, 1890
14331, -103, 13, 1019, 2450, -210, 1890
14351, -103, 11, 1019, 2520, -140, 1890
14371, -102, 11, 1019, 2450, -210, 1820
14391, -100, 12, 1019, 2450, -210, 1820
14411, -103, 10, 1020, 2450, -210, 1820
14431, -103, 12, 1019, 2450, -210, 1820
14451, -100, 11, 1021, 2450, -210, 1820
14471, -102, 10, 1020, 2450, -210, 1890
14491, -101, 11, 1020, 2450, -210, 1890
14511, -102, 11, 1017, 2450, -210, 1820
14531, -101, 11, 1020, 2450, -210, 1820
14551, -101, 12, 1020, 2450, -210, 1820
14571, -102, 11, 1019, 2450, -210, 1820
14591, -102, 11, 1019, 2450, -210, 1820
14611, -104, 10, 1020, 2450, -210, 1820
14631, -102, 11, 1019, 2450, -210, 1890
14651, -101, 10, 1020, 2450, -210, 1820
14671, -101, 10, 1019, 2450, -210, 1890
14691, -102, 12, 1020, 2450, -210, 1890
14711, -102, 12, 1021, 2450, -210, 1820
14731, -103, 12, 1018, 2450, -210, 1890
14751, -102, 12, 1021, 2450, -210, 1890
14771, -103, 10, 1019, 2450, -210, 1890
14791, -102, 11, 1023, 2450, -140, 1890
14811, -102, 12, 1020, 2450, -210, 1820
14831, -102, 12, 1020, 2450, -210, 1820
14851, -101, 12, 1018, 2450, -210, 1820
14871, -103, 12, 1019, 2450, -210, 1820
14891, -102, 12, 1020, 2450, -210, 1820
14911, -105, 11, 1020, 2450, -210, 1890
14931, -102, 11, 1020, 2450, -210, 1890
14951, -103, 11, 1020, 2450, -210, 1890
14971, -103, 12, 1019, 2450, -210, 1820
14991, -103, 11, 1019, 2450, -210, 1820
15011, -102, 11, 1020, 2450, -210, 1820
15031, -101, 11, 1020, 2450, -210, 1820
15051, -100, 11, 1020, 2450, -210, 1820
15071, -103, 13, 1020, 2450, -210, 1820
15091, -102, 12, 1019, 2450, -210, 1820
15111, -103, 11, 1020, 2450, -140, 1890
15131, -104, 10, 1019, 2450, -210, 1820
15151, -102, 12, 1021, 2450, -210, 1890
15171, -103, 12, 1019, 2450, -210, 1820
15191, -102, 12, 1021, 2450, -210, 1890
15211, -101, 12, 1018, 2450, -210, 1820
15231, -102, 11, 1020, 2450, -210, 1820
15251, -100, 11, 1019, 2450, -210, 1820
15271, -101, 10, 1021, 2450, -210, 1820
15291, -101, 11, 1018, 2450, -210, 1820
15311, -101, 11, 1020, 2450, -210, 1890
15331, -104, 11, 1019, 2450, -210, 1890
15351, -102, 11, 1019, 2450, -210, 1890
15371, -104, 11, 1020, 2450, -140, 1820
15391, -102, 12, 1022, 2450, -140, 1820
15411, -102, 10, 1020, 2450, -210, 1890
15431, -100, 12, 1020, 2450, -210, 1890
15451, -103, 10, 1019, 2450, -210, 1890
15471, -102, 10, 1021, 2450, -210, 1820
15491, -100, 13, 1019, 2450, -210, 1890
15511, -102, 12, 1020, 2450, -210, 1890
15531, -102, 10, 1020, 2450, -210, 1820
15551, -102, 10, 1021, 2450, -210, 1890
15571, -102, 11, 1020, 2450, -210, 1890
15591, -102, 10, 1019, 2450, -210, 1890
15611, -102, 11, 1018, 2450, -210, 1890
15631, -102, 11, 1020, 2450, -210, 1890
15651, -101, 11, 1020, 2450, -210, 1890
15671, -102, 12, 1019, 2450, -210, 1820
15691, -104, 10, 1021, 2450, -210, 1890
15711, -103, 11, 1021, 2450, -210, 1820
15731, -101, 12, 1020, 2450, -210, 1820
15751, -104, 10, 1019, 2450, -210, 1890
15771, -103, 12, 1020, 2450, -210, 1820
15791, -103, 11, 1019, 2450, -210, 1820
15811, -102, 12, 1019, 2450, -210, 1890
15831, -104, 10, 1021, 2450, -210, 1820
15851, -101, 13, 1019, 2450, -210, 1820
15871, -102, 11, 1018, 2450, -210, 1820
15891, -101, 12, 1022, 2450, -210, 1890
15911, -101, 11, 1021, 2450, -210, 1820
15931, -102, 12, 1017, 2450, -210, 1820
15951, -104, 11, 1019, 2450, -210, 1820
15971, -104, 10, 1019, 2450, -210, 1820
15991, -102, 9, 1019, 2450, -210, 1820
16011, -102, 10, 1019, 2450, -210, 1820
16031, -104, 11, 1020, 2450, -210, 1820
16051, -103, 12, 1018, 2450, -210, 1820
16071, -104, 11, 1020, 2450, -140, 1890
16091, -227, 3, 998, 2380, -280, 1960
16111, -57, 28, 1012, 1960, -210, 6160
16131, -47, 16, 1028, -910, -210, 38080
16151, -112, 10, 1020, -1610, 700, 41930
16171, -103, 12, 1019, 1400, 140, 11550
16191, -101, 11, 1018, 2450, -140, 1820
16211, -103, 11, 1018, 2450, -140, 1610
16231, -101, 11, 1019, 2450, -140, 1470
16251, -103, 11, 1019, 2450, -210, 1820
16271, -103, 11, 1020, 2450, -210, 1890
16291, -101, 10, 1019, 2450, -210, 1890
16311, -104, 12, 1019, 2520, -280, 1890
16331, -101, 12, 1017, 2450, -210, 1890
16351, -103, 11, 1020, 2450, -140, 1820
16371, -103, 10, 1018, 2450, -140, 1820
16391, -102, 11, 1020, 2450, -210, 1820
16411, -104, 13, 1019, 2450, -210, 1820
16431, -103, 11, 1018, 2450, -210, 1890
16451, -99, 12, 1019, 2450, -210, 1820
16471, -103, 12, 1020, 2450, -140, 1750
16491, -101, 12, 1019, 2520, -140, 1540
16511, -101, 12, 1018, 2450, -210, 1820
16531, -99, 11, 1020, 2450, -210, 1820
16551, -101, 10, 1019, 2450, -210, 1820
16571, -103, 11, 1019, 2450, -210, 1820
16591, -103, 10, 1019, 2450, -210, 1890
16611, -101, 11, 1019, 2450, -210, 1890
16631, -102, 9, 1018, 2450, -210, 1890
16651, -103, 11, 1020, 2450, -210, 1890
16671, -103, 10, 1020, 2450, -210, 1820
16691, -100, 11, 1018, 2450, -210, 1820
16711, -103, 9, 1018, 2450, -210, 1890
16731, -101, 11, 1019, 2450, -210, 1820
16751, -102, 10, 1021, 2450, -210, 1820
16771, -100, 11, 1018, 2450, -210, 1820
16791, -103, 10, 1021, 2450, -210, 1820
16811, -103, 12, 1018, 2450, -210, 1820
16831, -102, 9, 1020, 2450, -210, 1820
16851, -102, 11, 1021, 2450, -210, 1890
16871, -103, 10, 1018, 2450, -210, 1820
16891, -102, 10, 1020, 2450, -210, 1820
16911, -102, 11, 1019, 2450, -210, 1890
16931, -100, 12, 1021, 2450, -210, 1890
16951, -102, 11, 1017, 2450, -210, 1890
16971, -102, 12, 1020, 2450, -210, 1890
16991, -106, 12, 1017, 2450, -210, 1820
17011, -121, 8, 1015, 2310, -350, 2870
17031, -104, 10, 1018, 2030, -560, 6230
17051, -98, 18, 1020, 2030, -70, 5670
17071, -105, 13, 1019, 2380, -70, 2170
17091, -117, 17, 1024, 2940, -770, 0
17111, -109, 13, 1014, 8260, -9940, -3640
17131, -104, 27, 1030, 8050, -8820, -8960
17151, -83, 14, 1028, 11130, -12390, -15540
17171, -58, 31, 1037, 20930, -25130, -25130
17191, -89, 54, 1029, 29400, -16730, -16380
17211, -85, 42, 1040, 38640, -6720, -10710
17231, -67, 79, 1015, 45080, -630, -9590
17251, -37, 96, 1034, 55860, 3990, -8400
17271, -62, 101, 1089, 66920, 7560, -3710
17291, -55, 144, 1138, 73220, 15190, 3430
17311, -89, 168, 1156, 62230, 9380, 6090
17331, -81, 149, 1123, 23800, 6300, 9870
17351, -88, 168, 1068, -4270, 840, 9870
17371, -59, 143, 1058, -11550, -6230, 8540
17391, -65, 127, 1097, -10220, 1820, 8260
17411, -62, 122, 1037, -9660, 1540, 8260
17431, -78, 128, 1037, -18200, 1750, 9800
17451, -81, 119, 1058, -16100, 3990, 10220
17471, -78, 108, 1072, -15890, 5880, 9310
17491, -83, 102, 1041, -17430, 6720, 8750
17511, -75, 97, 1003, -21280, 5880, 12250
17531, -76, 80, 1022, -22260, 2380, 12600
17551, -80, 77, 1032, -18900, 2240, 13300
17571, -96, 72, 1034, -18410, 4340, 16520
17591, -107, 72, 1025, -18270, 2660, 17150
17611, -78, 66, 994, -18900, 5460, 17990
17631, -116, 61, 949, -20230, 6440, 18550
17651, -77, 48, 998, -20650, 8890, 21840
17671, -103, 50, 1009, -13300, 5110, 19740
17691, -132, 57, 1044, -13580, -6790, 19880
17711, -122, 54, 1022, -13860, -18550, 17080
17731, -127, 40, 997, -15400, -16310, 15120
17751, -82, 30, 1004, -18900, 1120, 17780
17771, -90, 34, 979, -16380, 3570, 17360
17791, -115, 25, 998, -17220, -6790, 17640
17811, -110, 18, 1001, -16940, -12460, 15960
17831, -108, 7, 1001, -14560, -16730, 13720
17851, -63, -7, 968, -15820, -17850, 12040
17871, -100, 0, 961, -17570, -16870, 11550
17891, -10, -46, 1059, -14140, -12740, 12670
17911, -85, -16, 978, -9450, -4900, 11690
17931, -64, -30, 957, -16940, -23380, 12600
17951, -56, -36, 968, -12530, -28840, 10150
17971, -27, -34, 926, -10430, -21070, 10640
17991, -9, -48, 962, -8260, -14560, 12320
18011, -35, -40, 1009, -3500, -7140, 15120
18031, -39, -41, 1041, 4690, -3850, 15330
18051, -39, -31, 1050, 4130, -12530, 10850
18071, -101, -58, 928, 1190, -20720, 5250
18091, -45, -36, 959, -4970, -10710, 14210
18111, -22, -81, 1089, 1260, 11480, 29960
18131, -9, -75, 1010, 5740, 11760, 21280
18151, -4, -67, 1006, -2240, -2170, 4620
18171, -21, -43, 1002, -7350, -18130, -9940
18191, -1, -77, 983, -7490, -27930, -6580
18211, 52, -59, 961, -7980, -25620, 560
18231, -37, -49, 1051, -770, 350, 13300
18251, 28, -75, 1065, 6930, 24360, 30590
18271, -65, -25, 1046, 9450, 11060, 24430
18291, -78, -37, 1030, 5040, 5810, 14980
18311, -58, -38, 948, 910, 3080, 5950
18331, -55, -36, 1066, 1190, 22400, 1610
18351, -44, -40, 1116, 8890, 66430, 1260
18371, -103, -35, 1157, 11900, 76720, -1820
18391, -129, -55, 1080, 2310, 55230, -5950
18411, -151, -68, 911, -13160, 26600, -12670
18431, -87, -83, 906, -28700, 3920, -33110
18451, -116, -88, 1053, -12950, 27020, -33740
18471, -86, -100, 1058, -16030, 31080, -30380
18491, -136, -105, 1044, -25760, 10710, -27020
18511, -118, -122, 914, -37730, -10990, -21350
18531, -215, -287, 1027, -32550, -13160, -12180
18551, -70, -161, 823, -26180, 210, -2660
18571, -95, -157, 1003, -23940, 19950, 6930
18591, -106, -148, 991, -17570, 22400, 10990
18611, -127, -153, 951, -20090, 5460, 5180
18631, -151, -138, 943, -16240, -5600, -280
18651, -134, -150, 946, -12110, 1890, 560
18671, -94, -176, 976, -6300, 20230, 6930
18691, -184, -247, 1022, -11480, 36820, 9800
18711, -235, -204, 1030, -86310, 21350, -26180
18731, -133, -238, 950, -88270, -9730, -52640
18751, -140, -278, 949, -90510, 2100, -30800
18771, -152, -326, 937, -102410, 24640, -6300
18791, -164, -349, 964, -105070, 32900, 770
18811, -195, -377, 965, -94500, 27580, 3990
18831, -166, -424, 918, -92540, 27230, 7630
18851, -170, -422, 880, -110320, 30800, 12810
18871, -269, -553, 854, -139860, 49490, 20370
18891, -218, -572, 779, -130550, 52080, 8610
18911, -272, -588, 810, -103530, 53760, -12320
18931, -276, -634, 784, -104370, 84490, -25200
18951, -222, -545, 728, -64470, 69510, -30450
18971, -276, -611, 728, -44170, 60760, -13930
18991, -256, -793, 377, -87290, 93800, 8120
19011, -467, -810, 684, -156800, 131390, 10710
19031, -464, -801, 679, -189350, 128660, -3080
19051, -390, -725, 604, -121590, 55230, -29260
19071, -316, -767, 565, -58730, -41510, -50050
19091, -330, -744, 548, -36190, -67690, -62300
19111, -185, -781, 521, -40180, -70700, -62090
19131, -235, -843, 530, -60760, -64470, -77280
19151, -269, -798, 525, -75460, -140, -34650
19171, -246, -768, 467, -63420, 22120, -4550
19191, -232, -865, 488, -52080, -6440, 1400
19211, -226, -866, 453, -60200, -31010, 5110
19231, -168, -926, 400, -66080, -14280, -3220
19251, -216, -932, 426, -78960, 15050, -22330
19271, -243, -952, 438, -69720, 55440, -62930
19291, -205, -871, 383, -76650, 18620, -35140
19311, -232, -948, 320, -89950, -1820, 1190
19331, -238, -950, 292, -100100, -5670, 10570
19351, -245, -977, 280, -96740, -12950, 16870
19371, -244, -988, 230, -104090, -14070, 24360
19391, -244, -932, 216, -89390, -35420, 29120
19411, -250, -823, 193, -68530, -58660, 25270
19431, -136, -913, 147, -55090, -74900, -8050
19451, -222, -942, 75, -63770, -104930, -63700
19471, -25, -888, -521, -80150, -74760, -102970
19491, 299, -1348, 183, -167720, 34020, -206150
19511, 196, -1020, 253, 19110, 3010, -268940
19531, 16, -929, 115, 179760, -128240, -125160
19551, 51, -996, 144, -45360, 8400, -16380
19571, 96, -1024, 33, -62580, -11760, 8330
19591, 41, -1056, 114, -42420, 560, 13650
19611, 30, -1054, 97, -33320, 44660, 16730
19631, 37, -981, 79, -27230, 34720, 2800
19651, 49, -998, 30, -7070, -840, -20440
19671, 66, -1035, 65, -10780, 630, -26460
19691, 68, -1004, 62, -26460, 12110, -11620
19711, 53, -996, 53, -23450, 14980, -5250
19731, 43, -1006, 48, -19390, 8610, 7630
19751, 44, -980, 26, -15680, 4620, 15890
19771, 41, -1007, 71, -12250, -840, 20300
19791, 45, -1049, 45, -15750, -4200, 17430
19811, -19, -1109, 7, -29540, -15260, 14840
19831, 32, -1049, -22, -49490, -15750, 6930
19851, 42, -919, -39, -33040, -35140, -4480
19871, 52, -978, -10, -14910, -43190, -16870
19891, 64, -941, 6, -31570, -27510, -22190
19911, 90, -979, -51, -52920, -13860, -8120
19931, 28, -828, -25, -77910, 4830, 6860
19951, -11, -1149, -21, -48790, -24570, 29330
19971, 243, -843, -200, -12390, -38990, 7490
19991, 31, -1039, -95, 37310, -68950, -52990
20011, 96, -1025, -113, 42910, -51590, -53410
20031, 83, -940, -93, 32270, -33320, -12670
20051, 73, -1021, -35, 28560, -11200, -9310
20071, 108, -1091, -58, 24780, -10220, 3640
20091, 108, -1067, -74, 14350, -15050, 10010
20111, 147, -1021, -62, 12320, -17710, -5110
20131, 141, -979, -30, 19460, -14210, -24780
20151, 67, -1048, 57, 19600, 4130, -31640
20171, -17, -1033, -11, 20440, 17920, -38080
20191, 45, -999, -22, 23870, 3080, -36960
20211, 137, -1022, 0, 5250, -8120, -11830
20231, 127, -1006, -43, -2310, -17430, 10920
20251, 129, -989, -27, 980, -13440, 10010
20271, 129, -1013, -26, -2380, -4690, 4130
20291, 124, -1030, -46, 1120, -2660, -140
20311, 105, -1017, -29, -2520, 280, 1680
20331, 131, -971, -62, -5180, 3150, 3010
20351, 162, -999, -45, -5740, 4480, 13860
20371, 145, -991, -42, -6160, 6440, 14630
20391, 138, -1016, -65, -1470, 5180, 3150
20411, 127, -1015, -43, -1680, 1050, 2240
20431, 162, -988, -67, -2100, -490, 2520
20451, 161, -959, -69, -1750, -560, 3780
20471, 125, -986, -62, 490, 1330, 7140
20491, 128, -987, -61, -1190, -1120, 11900
20511, 141, -985, -59, -1120, -1960, 13020
20531, 117, -982, -51, -2030, -3500, 15610
20551, 100, -998, -51, -70, -3080, 14140
20571, 87, -1006, -56, 2380, -2450, 10990
20591, 100, -1002, -33, 490, -5320, 12390
20611, 94, -963, -43, 140, -11060, 11900
20631, 97, -980, -55, 3360, -12810, 13020
20651, 28, -996, -44, 8960, -12110, 19530
20671, 71, -1031, -39, 12460, -9240, 23240
20691, 62, -1000, -35, 9800, -9030, 23100
20711, 49, -992, -31, 13790, -11900, 17990
20731, 55, -988, -54, 24290, -12880, 18550
20751, 37, -974, -236, 31780, -15680, 25900
20771, 14, -1011, 67, -7070, -28210, 28770
20791, 2, -1043, -5, -42770, -18550, 20510
20811, 3, -1008, -78, 19040, -2100, 1400
20831, 33, -1014, -17, 15960, -2870, -13930
20851, -3, -972, -32, -3220, 3080, -27090
20871, 26, -999, -36, 12320, 6790, -8330
20891, 58, -1008, -23, 8890, 2870, 12670
20911, 35, -975, -29, 2380, -1050, 10920
20931, 26, -977, -36, 6160, 1120, -3430
20951, 33, -974, -27, 8890, 560, -700
20971, 35, -1007, -22, 9310, 2800, 3920
20991, 24, -1032, -21, 12390, 4200, 6160
21011, 19, -1024, -16, 10080, 2870, 8260
21031, 39, -992, -21, 5040, 1820, 10290
21051, 31, -966, -25, 4340, 2380, 7980
21071, 5, -992, -17, 5670, 2240, 9520
21091, 10, -1038, -18, 6930, -1540, 20860
21111, -3, -1018, -14, 5670, -5740, 25340
21131, -20, -979, -3, 910, -4690, 21840
21151, -20, -977, -22, -1050, -560, 19180
21171, -14, -985, -12, 4900, -910, 26320
21191, -39, -1007, -4, 2590, -3430, 37660
21211, -44, -1007, -14, 2800, -350, 42350
21231, -66, -974, -13, 5740, 4060, 44450
21251, -36, -1006, -2, 4410, 1540, 42560
21271, -49, -968, -39, 2730, 4200, 29680
21291, -58, -1037, -9, 12810, 2800, 29260
21311, -85, -979, -18, 3850, 1400, 26880
21331, -123, -979, -6, 4480, -210, 14980
21351, -116, -991, -9, 3850, 2450, 10850
21371, -97, -1006, -14, 5950, 3290, 15890
21391, -89, -1010, -15, 6860, 5740, 8400
21411, -90, -983, -9, 4760, 3570, 4900
21431, -113, -998, -10, 1610, 1120, 2380
21451, -84, -1013, -6, 3010, 1260, 840
21471, -102, -991, -19, 3080, 3640, -3850
21491, -124, -999, -3, 4760, 5740, -9240
21511, -83, -1021, -7, 2590, 2940, 0
21531, -87, -1025, -23, 2240, 0, 12670
21551, -111, -1011, -2, 3150, -630, 12810
21571, -109, -1011, -10, -1050, 630, 12950
21591, -68, -1044, -39, -420, 1820, 16590
21611, -161, -952, -9, 1820, -420, 12460
21631, -150, -1012, 15, -5600, -10080, 12390
21651, -146, -995, -29, -12390, -10850, 13370
21671, -153, -986, -7, 1960, -9730, 13020
21691, -157, -957, -11, -2870, -7070, 7000
21711, -138, -966, -11, -1470, -3360, 210
21731, -112, -996, -26, 6020, 2660, 4690
21751, -140, -1001, -10, 11550, 6860, 12250
21771, -170, -970, -10, 10990, 9800, 5880
21791, -144, -1000, -4, 8890, 12740, -4970
21811, -79, -1004, -3, 10850, 11130, 3360
21831, -112, -982, -5, 9870, 8330, 3710
21851, -152, -993, -8, 11410, 11760, -15820
21871, -95, -1007, 6, 13790, 11340, -24080
21891, -81, -1019, -6, 11550, 3920, -27650
21911, -114, -995, 1, 12320, 4690, -37590
21931, -28, -1044, 11, 12600, 4130, -21980
21951, -40, -1018, 10, 4690, -2310, -5600
21971, -87, -1047, 17, 8610, 560, -16380
21991, -91, -1018, 15, 8190, 6650, -28840
22011, -44, -1038, 11, 6790, 3500, -23310
22031, -78, -1043, 28, 1610, 420, -19250
22051, -38, -1012, 19, -1400, -1470, -22890
22071, 40, -1003, -10, -5950, -7560, -29540
22091, -17, -1054, 5, -2940, -10640, -40040
22111, 7, -1028, 1, -10990, -10500, -50960
22131, 84, -1014, 0, -18410, -18550, -58870
22151, 69, -1023, 7, -24080, -22680, -75670
22171, 136, -1038, -19, -24500, -31500, -96880
22191, 68, -960, -24, -25410, -31500, -120190
22211, 49, -962, -31, -18130, -22960, -98070
22231, 228, -1010, -46, -12600, -11690, -31920
22251, 283, -1040, -50, -8960, 7350, -3850
22271, 234, -1044, -29, -4410, 24850, -44240
22291, 364, -1011, -88, -7280, 26810, -94080
22311, 300, -952, -87, -7770, 19670, -131390
22331, 244, -955, -50, -6860, 24710, -141330
22351, 375, -958, -55, -7350, 18480, -102270
22371, 450, -931, -52, -9870, -2380, -88130
22391, 477, -900, -38, -11200, -7560, -92400
22411, 547, -849, -77, 4270, 8890, -100870
22431, 508, -846, -78, 15610, 19040, -112630
22451, 425, -867, -49, 20090, 20160, -117040
22471, 573, -891, -35, 11480, 4970, -85190
22491, 592, -791, -48, 3500, -13930, -70140
22511, 655, -742, -33, 11690, -4690, -92050
22531, 696, -864, -7, 22190, 8890, -90930
22551, 414, -725, 17, 27790, 3290, -124180
22571, 516, -675, -78, 20580, -26040, -119420
22591, 680, -709, -89, 7630, -64330, -50260
22611, 749, -744, -61, -70, -64400, -12530
22631, 837, -751, -80, -210, -46970, -4620
22651, 735, -774, -73, 5740, -32550, -34440
22671, 617, -640, -110, 4690, -28980, -76370
22691, 597, -697, -100, 3080, -23240, -75460
22711, 651, -686, -50, -3010, -18620, -38360
22731, 822, -621, -119, -11410, -30800, -20650
22751, 909, -695, -111, -12110, -48230, -14420
22771, 712, -633, -139, -6300, -40880, -56630
22791, 638, -587, -168, 4060, -22540, -90720
22811, 790, -617, -139, 280, -6090, -54740
22831, 765, -593, -107, -8120, 3430, -17080
22851, 948, -635, -141, -10640, 280, -4900
22871, 797, -559, -164, -11830, -25690, -26110
22891, 735, -548, -172, -6510, -29330, -82180
22911, 740, -454, -170, -5460, -12530, -75460
22931, 930, -483, -174, -10290, -4410, -41580
22951, 943, -556, -165, -11060, -13510, -18620
22971, 863, -490, -192, -4620, -15540, -44380
22991, 806, -421, -207, -280, -21350, -82250
23011, 800, -381, -221, 1610, -16380, -94640
23031, 960, -419, -190, 2240, -9940, -58800
23051, 960, -469, -194, -490, -15960, -36890
23071, 844, -365, -237, 4200, -26740, -64330
23091, 807, -254, -255, 8680, -22330, -95270
23111, 895, -345, -218, 9030, -7910, -75740
23131, 848, -345, -218, 7420, -560, -20930
23151, 1047, -380, -213, 7070, -4060, 420
23171, 930, -292, -239, 3780, -10150, 4760
23191, 778, -218, -294, 12740, -17780, -64960
23211, 878, -274, -252, 20790, -12460, -72800
23231, 954, -351, -209, 9240, -700, -14700
23251, 916, -252, -231, 4690, 14700, 14560
23271, 934, -325, -217, 9310, 16380, 210
23291, 861, -238, -233, 7980, 4060, -8680
23311, 900, -308, -226, 9800, -1120, -18900
23331, 832, -286, -229, 8680, 4830, -6300
23351, 886, -317, -186, 8190, 17430, 5810
23371, 918, -300, -194, 1470, 27580, 35840
23391, 841, -327, -188, -3290, 29050, 56280
23411, 803, -323, -197, -5530, 29540, 70560
23431, 804, -359, -181, -7770, 35700, 96950
23451, 795, -456, -145, -15540, 46480, 143500
23471, 806, -528, -119, -19460, 57050, 187320
23491, 820, -582, -104, -20790, 56420, 206430
23511, 831, -622, -102, -18550, 46270, 208320
23531, 677, -595, -132, -11340, 31570, 189980
23551, 557, -683, -130, 2590, 36050, 160720
23571, 589, -822, -71, 15050, 44800, 165690
23591, 641, -846, -46, 9240, 41440, 194950
23611, 556, -813, -80, 5880, 30870, 198030
23631, 536, -869, -73, 9800, 21700, 177310
23651, 440, -876, -68, 14350, 12390, 159110
23671, 347, -934, -58, 16940, 10290, 125790
23691, 370, -1015, 3, 17080, 16170, 101920
23711, 324, -998, -39, 10570, 12180, 117600
23731, 298, -983, -49, 9450, 13930, 124460
23751, 216, -975, -42, 10640, 12530, 129990
23771, 147, -1053, -20, 7630, -1750, 142660
23791, 191, -1064, -34, 5320, -9660, 161420
23811, 192, -1076, -42, 9660, -16380, 176960
23831, -19, -924, -29, 910, -23030, 164640
23851, -44, -1014, -46, 8680, -1050, 145250
23871, -78, -1110, 20, 16730, 19110, 145880
23891, -54, -1073, -34, 19880, 21700, 161630
23911, -106, -1061, -14, 13510, 18130, 142800
23931, -171, -1016, -33, 11060, 11900, 110040
23951, -358, -939, 15, 5390, 19320, 113470
23971, -243, -1078, -20, 18340, 34930, 152250
23991, -216, -1058, 0, 6930, 29960, 171150
24011, -346, -899, -50, 3150, 19460, 147420
24031, -643, -761, 12, -840, 13370, 130340
24051, -684, -896, -32, 12670, 32970, 161630
24071, -560, -953, -18, 29260, 60900, 232470
24091, -558, -885, -40, 16660, 75180, 266700
24111, -624, -768, -31, 3850, 72660, 261030
24131, -747, -650, -108, -6720, 74410, 217770
24151, -743, -660, -137, 10150, 61110, 178220
24171, -741, -697, -86, 210, 44940, 203490
24191, -746, -514, -128, -8050, 9170, 195650
24211, -877, -465, -91, -16520, -10500, 153650
24231, -946, -409, -108, -8260, -6580, 139300
24251, -979, -374, -91, -11690, -6440, 153300
24271, -944, -360, -120, -4340, -11270, 187950
24291, -952, -225, -81, -12740, -16590, 212170
24311, -935, -260, -67, -15680, -19880, 212660
24331, -1077, -59, -36, -10430, -2380, 201110
24351, -1012, -108, -34, -700, 6930, 187320
24371, -815, -85, -156, 2730, -12460, 184170
24391, -899, 39, -130, 8470, -23170, 106610
24411, -1024, 85, -91, 70, -23170, 42070
24431, -1006, 143, -30, -5040, -30520, 24080
24451, -957, 52, -78, -3290, -21980, 29260
24471, -943, 8, -29, 8260, -17220, 38500
24491, -968, -6, -62, 5530, -8330, 17360
24511, -994, -12, -44, 9380, -420, -5880
24531, -971, -14, -51, 350, 6090, -56980
24551, -946, -87, -81, -4550, 11620, -82880
24571, -885, -154, -73, -7700, 6020, -106890
24591, -946, -224, -45, -21140, -980, -159810
24611, -955, -240, -27, -23310, 9170, -225540
24631, -1002, -279, -41, -18900, 22330, -278320
24651, -1051, -344, -112, 3710, 33740, -305340
24671, -881, -485, -90, 28420, 38360, -249410
24691, -829, -578, -129, 26880, 37170, -172270
24711, -779, -635, -76, 28140, 34440, -145390
24731, -677, -675, -124, 16520, 25830, -156450
24751, -688, -762, -80, 18550, 19390, -192080
24771, -808, -806, -122, 26600, 32830, -228200
24791, -698, -839, -106, 32760, 26670, -242690
24811, -538, -854, -127, 21420, 21350, -213290
24831, -491, -1059, -90, 22330, 22540, -194670
24851, -474, -935, -124, 10990, -2240, -216370
24871, -504, -735, -160, 4340, -14560, -253400
24891, -328, -943, -127, 12740, -17080, -228620
24911, -231, -1037, -87, 13230, -30100, -164360
24931, -110, -1014, -90, 9030, -34720, -148960
24951, -149, -953, -102, 8960, -35490, -176820
24971, -102, -950, -90, 12040, -35420, -205660
24991, 9, -999, -62, 17640, -25900, -187670
25011, 102, -1067, -59, 21140, -18480, -163450
25031, 183, -1089, -22, 20860, -25970, -152740
25051, 180, -991, -62, 14140, -32060, -172200
25071, 183, -911, -88, 19950, -40320, -206360
25091, 311, -929, -77, 20300, -53270, -201600
25111, 409, -953, -35, 17500, -46340, -162890
25131, 525, -993, -26, 14770, -27650, -139370
25151, 411, -882, -59, 18410, -24570, -155330
25171, 415, -803, -108, 23660, -32830, -194250
25191, 485, -799, -55, 24290, -28700, -180600
25211, 648, -836, -15, 16030, -15820, -137340
25231, 696, -829, -30, 11410, -6510, -110460
25251, 757, -863, -14, 12530, -3920, -108290
25271, 509, -562, -100, 13790, -4130, -133280
25291, 742, -671, -45, 20510, -2730, -167020
25311, 773, -676, -36, 11200, -3850, -108290
25331, 911, -705, 1, 4060, 70, -71680
25351, 829, -659, -35, 3850, -5250, -67900
25371, 760, -510, -68, 7840, -17220, -97160
25391, 798, -525, -52, 16380, -7000, -131740
25411, 866, -488, -29, 17080, 5670, -109060
25431, 922, -511, -10, 10080, 3220, -73920
25451, 941, -536, -4, 12600, -5250, -72030
25471, 829, -400, -67, 20510, -13510, -98210
25491, 841, -354, -55, 30940, -13020, -132580
25511, 901, -380, -18, 25620, -9100, -112910
25531, 906, -386, -29, 14000, -17920, -63910
25551, 919, -310, -52, 13440, -28000, -56280
25571, 876, -211, -87, 19180, -20230, -77980
25591, 950, -260, -60, 19460, -4060, -72800
25611, 961, -287, -31, 15470, 5320, -45290
25631, 1011, -288, -29, 10500, 3640, -25620
25651, 982, -230, -41, 9450, 3710, -21070
25671, 909, -205, -66, 9870, 1960, -29680
25691, 953, -234, -51, 12180, 2240, -35140
25711, 951, -268, -36, 10430, 4270, -15260
25731, 919, -215, -56, 2660, 6930, 18550
25751, 957, -282, -41, -210, 8330, 26740
25771, 876, -289, -63, -14140, 10780, 84420
25791, 848, -380, -31, -27930, 24640, 140280
25811, 971, -514, 29, -48440, 28280, 206920
25831, 895, -458, -14, -42840, 20930, 195300
25851, 885, -494, -20, -27230, 20020, 164290
25871, 731, -541, -63, -17990, 24360, 156450
25891, 599, -620, -50, -21280, 27370, 180880
25911, 788, -876, 65, -34510, 30940, 229530
25931, 787, -764, 36, -41440, 23590, 218750
25951, 555, -667, -60, -8400, 4130, 115290
25971, 509, -688, -90, 7490, -4900, 79030
25991, 488, -786, -21, -980, 6650, 125440
26011, 564, -984, 20, -10780, 11690, 184520
26031, 576, -934, -5, -16660, 13370, 197190
26051, 458, -893, -29, -6090, 7630, 148050
26071, 340, -884, -81, 2590, 4200, 109760
26091, 226, -956, -46, -70, 12460, 144410
26111, 384, -1091, 17, -9800, 30940, 207900
26131, 318, -1061, -20, -15330, 29960, 219520
26151, 188, -1036, -32, -5810, 14560, 164150
26171, 61, -977, -79, -1120, 14770, 114870
26191, -68, -967, -36, -3850, 26600, 139720
26211, 48, -1134, -23, -12460, 27580, 188300
26231, 59, -1069, -49, -19810, 12740, 192850
26251, -69, -849, -65, -25410, -9310, 159950
26271, -177, -971, -123, -24500, -15540, 131810
26291, -342, -993, -53, -3920, 16660, 144480
26311, -158, -1173, -29, -7490, 40180, 199850
26331, -355, -767, -82, -18410, 32900, 217280
26351, -388, -944, -152, -25410, 8750, 156170
26371, -576, -825, -94, -6440, 7560, 133910
26391, -486, -931, -95, -7910, 6230, 139090
26411, -507, -821, -104, -9940, 9870, 173530
26431, -558, -850, -130, -12740, 9660, 173250
26451, -637, -776, -106, -8330, -1120, 144830
26471, -661, -754, -114, -10080, -1610, 112560
26491, -662, -781, -135, -5460, 4270, 123760
26511, -756, -676, -90, -2660, 1610, 159810
26531, -729, -719, -152, -6160, 1050, 156310
26551, -841, -507, -120, -2450, -4270, 117530
26571, -792, -625, -107, -3850, -17010, 95690
26591, -843, -534, -119, 1820, -24290, 124460
26611, -891, -537, -88, 1890, -40320, 136850
26631, -846, -477, -75, 1470, -47390, 120890
26651, -881, -430, -97, -2170, -42070, 96110
26671, -912, -457, -59, 770, -36890, 92050
26691, -890, -440, -54, 1330, -40320, 110600
26711, -968, -384, -30, -770, -37170, 124110
26731, -874, -363, -38, -3150, -18690, 83650
26751, -970, -271, -25, -4340, -2310, 62230
26771, -979, -299, -40, -3150, 16940, 63910
26791, -977, -329, -45, -3360, 19460, 89950
26811, -941, -167, -63, -5880, 22190, 94570
26831, -938, -137, -91, -11130, 19390, 71190
26851, -966, -152, -78, -6580, 12320, 60410
26871, -1028, -130, -64, -280, 5040, 66850
26891, -1019, -126, -59, 4130, 2730, 66710
26911, -993, -159, -86, 5740, 5740, 74900
26931, -925, -110, -106, 6440, 5810, 76160
26951, -962, -124, -93, 3850, 1890, 70700
26971, -1036, -101, -67, 2170, -2870, 55860
26991, -1003, -36, -67, 420, 630, 38220
27011, -958, -67, -97, 840, 2310, 26460
27031, -996, -32, -76, 2800, -700, 21420
27051, -944, -109, -96, 2240, -1820, 15680
27071, -969, -89, -73, 2100, -3010, 6930
27091, -966, -127, -96, -5040, 1190, -25060
27111, -940, -202, -93, -9450, 8120, -57470
27131, -1031, -64, -90, -13860, 23240, -84490
27151, -1000, -157, -124, -15680, 31850, -126910
27171, -941, -332, -128, -6790, 30730, -138180
27191, -1029, -343, -133, -2100, 38990, -159600
27211, -918, -391, -145, 4550, 42350, -205450
27231, -826, -499, -151, 4130, 29960, -208110
27251, -898, -608, -143, 4900, 19460, -201810
27271, -961, -569, -168, 11550, 18550, -229460
27291, -703, -675, -173, 14280, 13930, -234080
27311, -702, -654, -177, 7840, 8750, -196840
27331, -627, -738, -155, 11200, 6160, -185990
27351, -529, -894, -147, 15960, 2450, -176470
27371, -641, -864, -159, 21700, 3500, -186970
27391, -444, -882, -168, 24290, 6090, -219030
27411, -378, -894, -142, 27160, 4900, -224630
27431, -385, -953, -127, 25410, -12600, -210000
27451, -257, -1074, -99, 28980, -14000, -212170
27471, -283, -957, -84, 26740, -5670, -204260
27491, -201, -868, -162, 25480, 7350, -209230
27511, -79, -1000, -88, 32830, 2170, -221130
27531, 9, -1024, -91, 30240, -21280, -185080
27551, 41, -1029, -84, 24780, -21280, -165480
27571, 0, -924, -88, 26250, -5180, -177100
27591, 166, -1019, -12, 30380, -3920, -166180
27611, 239, -1030, -50, 22820, -20440, -139790
27631, 269, -1009, -45, 18760, -30380, -142800
27651, 255, -904, -55, 19320, -21350, -161000
27671, 371, -916, -40, 21000, -10990, -161630
27691, 407, -950, -39, 21910, -16590, -144900
27711, 434, -885, -17, 17780, -20580, -140490
27731, 491, -856, -5, 17570, -28070, -156240
27751, 565, -858, -32, 20020, -41510, -171220
27771, 536, -800, -46, 22890, -34230, -172410
27791, 629, -743, -26, 22120, -13930, -153930
27811, 715, -735, -43, 16870, -14420, -133980
27831, 748, -686, -36, 12040, -23590, -114380
27851, 785, -643, -35, 11970, -13720, -106470
27871, 722, -646, -42, 11060, -11550, -92750
27891, 815, -638, -48, 12250, -13230, -95200
27911, 774, -632, -65, 9380, -12320, -83440
27931, 818, -540, -53, 6510, -13440, -79940
27951, 817, -546, -54, 6300, -9520, -80080
27971, 901, -550, -50, 5670, -9520, -72870
27991, 824, -490, -65, 3290, -9100, -56910
28011, 921, -528, -29, 3290, -13370, -56280
28031, 822, -514, -88, 5250, -21210, -70070
28051, 813, -475, -100, 5110, -20020, -75670
28071, 847, -398, -68, -6790, -5390, -52780
28091, 872, -448, -43, -12740, 4550, -24430
28111, 853, -399, -77, -6300, 2800, -25970
28131, 888, -418, -66, -4130, 1330, -20930
28151, 803, -398, -109, -7280, 3990, -3570
28171, 875, -422, -69, -10500, 8680, 20510
28191, 875, -397, -76, -14840, 16730, 51240
28211, 822, -352, -89, -16100, 20370, 83160
28231, 903, -523, -43, -18550, 26460, 132440
28251, 820, -591, -24, -25550, 34440, 189700
28271, 842, -639, -42, -29820, 35770, 203630
28291, 779, -709, -39, -25550, 26880, 211540
28311, 606, -768, -70, -12950, 21140, 179830
28331, 577, -767, -65, -1820, 19600, 150570
28351, 521, -781, -55, -4130, 20370, 143430
28371, 525, -809, -43, -3710, 30730, 151550
28391, 542, -871, -19, -4760, 36750, 170800
28411, 458, -954, -24, -2800, 34790, 175700
28431, 337, -900, -38, 280, 31360, 162680
28451, 319, -952, -22, -630, 25200, 153230
28471, 272, -943, -29, -350, 27300, 160230
28491, 231, -1005, -22, 630, 23590, 176190
28511, 201, -1074, 0, 140, 13090, 182070
28531, 66, -959, -52, -2940, 9870, 162540
28551, 31, -955, -38, 350, 15960, 146790
28571, 29, -1020, -29, 70, 21420, 166810
28591, -19, -1079, -5, 3080, 29540, 183960
28611, -127, -982, -41, 1470, 21070, 163940
28631, -226, -952, -56, 280, 6650, 129850
28651, -244, -936, -49, -2660, -1400, 132440
28671, -340, -1010, -20, -5530, -3080, 166390
28691, -277, -1034, 0, -7420, -9730, 196000
28711, -384, -940, -4, -8400, -21630, 186270
28731, -554, -885, -30, -4200, -28980, 146020
28751, -536, -910, 2, 4620, -17780, 151130
28771, -455, -924, -17, 4900, -420, 194600
28791, -497, -878, -19, 6300, 14210, 198520
28811, -575, -824, -48, 1890, 11200, 156870
28831, -770, -714, -31, 1750, 6090, 112000
28851, -775, -740, -33, 1890, 13510, 88480
28871, -689, -783, -16, 6160, 32690, 122500
28891, -612, -674, -75, 2030, 37940, 158900
28911, -831, -607, -58, -6020, 19040, 143850
28931, -967, -589, -54, -10500, 7140, 105350
28951, -871, -736, -62, -4760, 14210, 128520
28971, -756, -702, -98, -1120, 28350, 210280
28991, -720, -194, -79, -12320, 31710, 264460
29011, -873, -374, -144, -32340, 18130, 260680
29031, -995, -191, -93, -8190, 16240, 192920
29051, -1043, -179, -81, 700, 18410, 141330
29071, -926, -190, -135, -2310, 23170, 123690
29091, -900, -167, -137, -70, 5880, 131180
29111, -971, -109, -108, -8750, -6650, 117460
29131, -1005, -121, -119, -10430, -5530, 74410
29151, -1054, -76, -122, -4970, 4480, 46130
29171, -1052, -120, -119, -1890, 6440, 43610
29191, -1007, -78, -109, -2170, 3360, 64750
29211, -972, -75, -111, -7070, -4830, 76930
29231, -1039, 56, -112, -8470, -3640, 61180
29251, -972, -2, -123, -7980, 4690, 33530
29271, -903, -83, -142, 1610, 2870, 50260
29291, -961, 59, -83, 2170, -14000, 84770
29311, -1051, 78, -111, -6160, -23800, 73640
29331, -955, 30, -95, -3010, -15680, 37520
29351, -965, 71, -116, 3010, -9240, 27020
29371, -1011, 121, -90, 3430, -4620, 11130
29391, -1042, 90, -91, 3080, -5670, -770
29411, -949, -73, -85, 6720, -6160, -11340
29431, -953, -10, -88, 4270, 4620, -35560
29451, -990, -47, -139, 980, 20090, -92750
29471, -994, -151, -123, 5740, 32130, -152810
29491, -1064, -187, -125, 140, 26460, -221340
29511, -991, -268, -98, -1540, 20650, -284060
29531, -986, -333, -157, 5880, 18760, -295680
29551, -990, -515, -117, 14700, 4550, -292250
29571, -970, -566, -153, 15260, -1680, -282730
29591, -835, -667, -104, 8540, -5180, -257950
29611, -745, -642, -132, 6650, -19670, -254520
29631, -628, -753, -106, 4550, -34440, -250250
29651, -685, -792, -104, 15540, -24850, -256550
29671, -631, -887, -95, 19670, -17080, -246120
29691, -522, -888, -102, 19040, -14770, -229670
29711, -407, -933, -75, 15260, -15330, -205450
29731, -311, -913, -92, 18690, -19740, -211260
29751, -299, -984, -95, 19880, -27510, -217000
29771, -204, -1022, -46, 21630, -34720, -225330
29791, -191, -983, -62, 14770, -46550, -237580
29811, -127, -910, -72, 16030, -57680, -240660
29831, 38, -986, -78, 13440, -49910, -226170
29851, 147, -1015, -48, 12810, -36610, -193340
29871, 101, -930, -45, 10430, -29960, -197260
29891, 258, -959, -29, 13230, -28210, -195020
29911, 341, -986, -33, 14280, -28070, -186130
29931, 302, -990, -22, 17290, -20300, -191660
29951, 376, -879, -48, 17220, -16170, -197120
29971, 494, -882, -20, 11130, -17220, -180530
29991, 570, -850, -12, 11900, -14630, -161350
30011, 555, -832, -34, 15260, -25200, -159250
30031, 571, -755, -70, 15260, -37100, -157290
30051, 625, -771, -48, 11620, -35980, -141890
30071, 693, -744, -54, 6090, -25830, -111090
30091, 768, -769, -33, 910, -31010, -101150
30111, 682, -736, -54, 700, -33110, -109550
30131, 676, -576, -111, 8960, -30660, -146300
30151, 725, -570, -111, 6020, -26110, -143780
30171, 925, -630, -58, -1680, -22190, -105350
30191, 791, -477, -114, -7070, -21630, -94010
30211, 797, -457, -126, 770, -22750, -116200
30231, 852, -428, -119, -1120, -19600, -101430
30251, 893, -505, -105, -6300, -9170, -73010
30271, 867, -444, -122, -8120, -8330, -50820
30291, 929, -436, -115, -7280, -14420, -59290
30311, 902, -431, -114, -6510, -8960, -60410
30331, 844, -312, -142, -6230, -2100, -52430
30351, 931, -399, -123, -6230, -5460, -38290
30371, 932, -366, -125, -4270, -8960, -25340
30391, 945, -362, -134, -3360, -8820, -23660
30411, 884, -311, -159, -700, -6580, -15680
30431, 882, -364, -142, 4550, -6300, -7910
30451, 914, -406, -133, 5390, -3780, 15260
30471, 853, -416, -144, 3570, -70, 41790
30491, 821, -440, -148, -490, 4760, 61180
30511, 802, -471, -141, -7420, 14630, 91140
30531, 776, -542, -121, -16940, 22260, 137200
30551, 827, -569, -98, -27790, 29260, 188230
30571, 838, -615, -105, -33950, 39760, 225680
30591, 744, -676, -117, -27580, 40460, 230440
30611, 591, -696, -131, -16100, 31780, 211330
30631, 475, -803, -113, -7070, 31290, 202230
30651, 529, -838, -106, -6930, 29610, 211680
30671, 550, -827, -90, -11480, 27370, 224000
30691, 421, -850, -103, -6370, 20930, 216370
30711, 273, -973, -108, 7490, 5880, 184030
30731, 195, -926, -112, 15750, 1050, 160370
30751, 213, -945, -86, 12740, 8120, 169260
30771, 319, -1029, -60, 7350, 7700, 200690
30791, 189, -1116, -73, 7770, 2100, 203210
30811, 0, -1039, -97, 13790, -2520, 153720
30831, -193, -902, -84, 12320, 1400, 106400
30851, -102, -1033, -56, 6440, 22540, 136570
30871, 102, -1155, -47, 2800, 36470, 220710
30891, -130, -1080, -45, 3150, 35770, 259840
30911, -291, -924, -110, 4550, 16310, 196140
30931, -492, -851, -111, 6230, -490, 125370
30951, -348, -1009, -38, 7910, 2730, 133490
30971, -285, -1023, -46, 11970, 29260, 220080
30991, -369, -857, -58, 10360, 23800, 234990
31011, -640, -755, -71, 4270, -10360, 167440
31031, -769, -797, -16, 6090, -32900, 98980
31051, -563, -1019, -49, 19600, -26600, 122500
31071, -503, -828, -57, 28700, -4900, 213640
31091, -553, -747, -102, 21980, 12670, 235970
31111, -790, -662, -65, 9870, 12250, 172480
31131, -965, -598, -14, 2310, 3290, 93380
31151, -805, -743, -43, 10010, 9100, 100940
31171, -637, -661, -74, 19250, 24220, 151830
31191, -718, -511, -96, 13790, 34860, 185920
31211, -963, -433, -54, 350, 17570, 129150
31231, -1008, -510, -48, -5810, 3150, 71820
31251, -826, -578, -49, 7070, 12600, 98280
31271, -834, -344, -106, 1400, 13160, 155120
31291, -902, -292, -62, -11830, 1890, 115220
31311, -982, -353, -84, -3010, 4270, 88340
31331, -979, -315, -79, -140, 11970, 86030
31351, -959, -261, -109, 1960, 12880, 101150
31371, -961, -177, -80, -4690, 630, 108010
31391, -1003, -222, -72, -2450, -8260, 99960
31411, -1009, -157, -67, -4760, -3080, 108920
31431, -901, -145, -106, 350, 6930, 105280
31451, -973, -147, -99, 1190, 2730, 92330
31471, -982, -42, -68, 2870, -3500, 66360
31491, -943, -117, -144, 10080, -6860, 70420
31511, -1008, -51, -72, 7420, -5810, 64960
31531, -992, -29, -88, 840, 140, 27860
31551, -1032, 71, -75, 70, -1260, 12250
31571, -1007, 4, -80, 6020, -3640, 9940
31591, -981, -68, -107, 8120, -3710, 24990
31611, -1037, -12, -83, 9940, -4480, 9450
31631, -945, -68, -95, 2030, -5950, 9310
31651, -891, -48, -149, -7280, -6790, -3850
31671, -934, -105, -73, -24990, -16100, -51240
31691, -940, -98, -46, -36400, -14630, -107660
31711, -936, -215, -88, -31220, 7980, -149800
31731, -1045, -277, -36, -23870, 29190, -217560
31751, -1106, -305, -69, -13720, 39690, -260680
31771, -989, -282, -99, 4060, 40810, -238700
31791, -781, -527, -151, 20370, 46060, -200690
31811, -773, -694, -159, 27860, 49770, -190260
31831, -753, -707, -122, 28000, 36540, -215810
31851, -842, -660, -129, 21770, 28490, -247940
31871, -810, -747, -140, 33740, 24920, -256410
31891, -711, -720, -194, 40600, 6720, -218540
31911, -552, -856, -137, 38990, -15120, -166530
31931, -443, -942, -98, 25130, -26810, -145810
31951, -351, -996, -70, 16240, -30940, -167790
31971, -496, -909, -98, 14350, -31150, -217070
31991, -467, -976, -52, 19040, -37170, -257180
32011, -325, -915, -78, 16590, -47110, -247240
32031, -204, -995, -73, 12600, -50470, -207760
32051, 33, -1075, -29, 9590, -46620, -177730
32071, -72, -971, -63, 6090, -48860, -191450
32091, -169, -901, -78, 12950, -50890, -233940
32111, 41, -995, -50, 18410, -49210, -218540
32131, 175, -1009, -31, 13370, -43820, -176400
32151, 303, -1057, -9, 8400, -39060, -163030
32171, 258, -989, -58, 6580, -48720, -186970
32191, 188, -832, -104, 11690, -54390, -236040
32211, 350, -927, -59, 14000, -49840, -222530
32231, 509, -903, -44, 7350, -43890, -170030
32251, 623, -924, -48, 1050, -40180, -148960
32271, 495, -842, -103, 2240, -44450, -162120
32291, 499, -714, -111, 8330, -47530, -195510
32311, 641, -734, -110, 5600, -35000, -171850
32331, 743, -748, -76, -1050, -30030, -125860
32351, 785, -815, -74, -3920, -29190, -110320
32371, 616, -593, -158, -630, -38290, -131530
32391, 734, -574, -165, 700, -42910, -155190
32411, 900, -633, -125, -3780, -30940, -120540
32431, 723, -529, -161, -5460, -21630, -84700
32451, 810, -553, -167, -2730, -29330, -102830
32471, 902, -518, -154, -4060, -28140, -104090
32491, 815, -469, -181, -8330, -16940, -88060
32511, 846, -520, -158, -3570, -10920, -84210
32531, 850, -470, -160, -4340, -9170, -64820
32551, 813, -387, -172, -5740, -7210, -69510
32571, 846, -346, -178, -6020, -3850, -70280
32591, 874, -396, -179, -6160, -6580, -52150
32611, 849, -346, -199, -2520, -11900, -40460
32631, 907, -385, -186, 1120, -9520, -36750
32651, 837, -294, -197, 70, -4900, -22680
32671, 881, -378, -184, -2940, -280, -1750
32691, 857, -452, -167, -3850, 4970, 36750
32711, 821, -432, -188, -7420, 13300, 73990
32731, 851, -411, -178, -13790, 22120, 101290
32751, 812, -558, -143, -22890, 31710, 152460
32771, 786, -578, -160, -27090, 37100, 216790
32791, 788, -713, -142, -24430, 39900, 242480
32811, 679, -676, -173, -17710, 42560, 238000
32831, 569, -703, -175, -13230, 39830, 213080
32851, 594, -771, -146, -7280, 40530, 195300
32871, 604, -896, -116, -7140, 49630, 201530
32891, 462, -854, -137, -5320, 51660, 193690
32911, 344, -859, -117, -3780, 42070, 150430
32931, 259, -891, -162, 280, 38360, 118230
32951, 366, -1024, -110, -4200, 36680, 130900
32971, 410, -1031, -99, -10430, 36540, 166040
32991, 314, -951, -124, -23310, 24710, 168560
33011, 211, -972, -156, -15470, 19040, 116480
33031, 67, -980, -161, -7980, 16450, 67480
33051, 228, -963, -148, -12670, 17640, 67340
33071, 260, -1047, -135, -27580, 18620, 95480
33091, 221, -1009, -157, -32830, 12390, 101780
33111, 102, -989, -179, -22190, 2660, 29330
33131, 97, -917, -192, -19250, 13860, 26040
33151, 97, -1001, -178, -20230, 22260, 47530
33171, 157, -1050, -188, -26880, 12040, 64330
33191, 115, -1019, -195, -28140, -350, 37800
33211, 90, -926, -213, -26600, -3710, -2730
33231, 64, -1008, -244, -20650, 3990, -17080
33251, 103, -1033, -234, -23660, 8610, -280
33271, 114, -1001, -250, -33740, 5390, 10500
33291, 219, -1060, -288, -46760, -5880, 6020
33311, 75, -963, -235, -55790, -19670, -18130
33331, 154, -940, -336, -61040, -9800, -29120
33351, 195, -939, -363, -68180, -1750, -2660
33371, 105, -1029, -344, -68740, -15540, 13230
33391, 152, -895, -414, -77490, -23170, -6370
33411, 111, -958, -376, -80360, -27440, -4900
33431, 116, -909, -447, -81480, -33320, -1120
33451, 59, -887, -440, -76440, -30590, 6230
33471, 63, -880, -496, -76230, -6720, 11200
33491, 106, -1019, -509, -81550, -210, 14280
33511, -2, -858, -530, -88830, -19460, -630
33531, 30, -881, -586, -91000, -30870, 1960
33551, 120, -797, -596, -99540, -41230, 33530
33571, 91, -721, -627, -93170, -24780, 21070
33591, 41, -827, -643, -83510, -3220, -560
33611, -177, -697, -585, -81060, 23100, -2100
33631, 184, -725, -686, -84070, 25130, 1750
33651, 172, -748, -715, -87710, -5180, 13160
33671, 125, -683, -692, -80500, 700, -21350
33691, -64, -508, -703, -80850, 8190, -29190
33711, 214, -545, -677, -68460, 6020, -11900
33731, 31, -561, -725, -55930, 1750, 18340
33751, 155, -559, -803, -46130, 6020, 12320
33771, 31, -500, -725, -40600, 12320, 18760
33791, 97, -492, -751, -37380, 11830, -3360
33811, 110, -519, -759, -30030, 16520, 3710
33831, 159, -520, -803, -21210, 22540, 22260
33851, 20, -520, -755, -14280, 13650, 23870
33871, 32, -581, -753, -10780, 8190, 8260
33891, 191, -565, -795, -8610, 9030, 6370
33911, 104, -536, -776, -2380, 1610, 1960
33931, 130, -451, -804, 7070, -7070, -2520
33951, 57, -495, -778, 16660, -9310, 5460
33971, 61, -610, -768, 27230, -15190, 10290
33991, 65, -529, -753, 36540, -21420, 15400
34011, 88, -487, -780, 35210, -22120, 7420
34031, 72, -634, -764, 47460, -26810, -1050
34051, 93, -720, -717, 68600, -34720, -4830
34071, -66, -613, -729, 82250, -30030, -12670
34091, 106, -636, -721, 92960, -18340, -19390
34111, 68, -747, -633, 94990, -21070, 10010
34131, -1, -623, -595, 103390, -24010, -14980
34151, 9, -888, -549, 113610, -12810, -45500
34171, 65, -905, -549, 121590, -27300, -34930
34191, 12, -769, -559, 125090, -18270, -7490
34211, 135, -793, -589, 127890, 18900, -560
34231, -49, -1112, -449, 126280, -2520, 6720
34251, -56, -1035, -383, 123340, -30240, -2660
34271, 86, -833, -425, 105700, -18200, -2660
34291, 201, -609, -458, 102200, -8750, 16380
34311, 74, -1094, -328, 115150, -25480, 26740
34331, -161, -1297, -215, 152320, -40460, 8400
34351, -37, -928, -268, 140140, -32550, -20860
34371, 191, -831, -251, 106820, 13510, -3570
34391, 94, -613, -250, 106400, 39900, 32900
34411, 19, -1557, -99, 138950, 17010, 19670
34431, -57, -1141, -78, 159320, -49910, -4480
34451, -85, -874, -109, 116060, -40040, -40740
34471, 88, -886, -53, 96880, -3080, -45570
34491, 26, -960, 10, 103600, -18200, -2730
34511, -82, -1126, 129, 123830, -35490, 1400
34531, 2, -1032, 106, 132650, -55160, -14280
34551, 50, -940, 127, 120260, -58310, -20510
34571, 100, -839, 193, 110740, -30380, -2590
34591, 155, -1062, 279, 121030, -2940, 18410
34611, 92, -1080, 279, 138600, -12040, 16310
34631, -23, -999, 265, 137340, -32900, -5040
34651, -70, -696, 326, 123130, -16310, -22190
34671, 206, -745, 414, 116620, 13020, -6230
34691, 136, -1217, 484, 128310, 10080, 21350
34711, -64, -848, 417, 144970, -7560, 14280
34731, 7, -667, 445, 129150, -25270, -18550
34751, 409, -624, 275, 119770, -18900, -16800
34771, 196, -935, 725, 127960, 4830, -9170
34791, 69, -1207, 691, 155050, 21770, -10500
34811, -85, -723, 656, 156590, -24640, -11410
34831, -18, -526, 690, 123130, -27720, -43540
34851, 314, -665, 825, 110180, 1400, -29120
34871, 358, -731, 857, 118020, 1260, 21420
34891, 135, -927, 845, 136080, -21910, 13230
34911, -33, -702, 838, 142590, -47810, -20370
34931, 65, -558, 851, 129780, -21140, -23310
34951, 408, -416, 738, 107520, -34230, 15400
34971, 353, -463, 861, 87780, -94220, 26740
34991, 249, -500, 896, 108990, -59150, -7000
35011, 173, -494, 816, 111440, -34580, -30870
35031, 108, -398, 831, 106190, -12740, -35140
35051, 167, -321, 921, 93730, -8540, -28280
35071, 360, -343, 979, 91070, -6860, -4550
35091, 284, -295, 950, 93240, -1260, -6650
35111, 186, -453, 919, 94290, -6230, -13720
35131, 107, -287, 910, 80500, 1610, -17990
35151, 247, -243, 996, 65240, 26390, -7210
35171, 257, -222, 986, 55090, 27440, 2030
35191, 256, -312, 995, 54320, 16030, 3010
35211, 225, -225, 991, 46130, 10290, 6580
35231, 224, -174, 966, 35700, 8610, 5250
35251, 229, -110, 972, 29260, 4900, 7770
35271, 119, -138, 933, 31220, 2870, 7630
35291, 138, -236, 968, 31920, 2870, 8960
35311, 137, -121, 965, 20510, 7910, 12880
35331, 139, -147, 980, 13370, 14840, 15400
35351, 183, -199, 1016, 10990, 15330, 21630
35371, 176, -209, 1008, 280, 14770, 19460
35391, 107, -292, 996, -9520, 16310, 17080
35411, 127, -131, 963, -28700, 19110, 15750
35431, 141, -167, 986, -43470, 26880, 22190
35451, 42, -142, 875, -55160, 29120, 24220
35471, 24, -352, 903, -62720, 18060, 15260
35491, 71, -269, 881, -85190, 7350, 26250
35511, 214, -33, 764, -112770, 19390, 35000
35531, 78, -258, 788, -109410, 50540, 52500
35551, -58, -270, 813, -103880, 29120, 45640
35571, 163, -448, 893, -112700, 4270, 44940
35591, 200, -376, 842, -120260, 13440, 44170
35611, 200, -619, 869, -107940, 15190, 17220
35631, -139, -645, 870, -106750, 2800, -490
35651, -135, -525, 821, -112070, 30310, -13790
35671, 180, -769, 900, -122710, 40320, 17710
35691, 207, -751, 924, -124880, 35840, 38780
35711, -25, -932, 834, -127820, 10010, 490
35731, -92, -812, 723, -131250, -13440, -36750
35751, -169, -484, 673, -147140, 5670, -42070
35771, 146, -896, 681, -144760, 41720, -10150
35791, 402, -1082, 707, -129710, 52290, 39690
35811, 62, -978, 636, -132930, 35280, 6230
35831, -174, -904, 546, -141190, -700, -60200
35851, -30, -882, 443, -150080, -13860, -60060
35871, -29, -808, 456, -146720, 28420, -27370
35891, 186, -1139, 416, -139510, 71400, 6930
35911, -18, -1054, 357, -140280, 53830, 27930
35931, -98, -957, 277, -146930, 25970, -4060
35951, 80, -980, 177, -141470, 37520, -22330
35971, 280, -1138, 158, -137130, 45290, 19810
35991, 21, -1095, 157, -140840, 52850, 46130
36011, -259, -972, 80, -148750, 55300, 12880
36031, -5, -1029, 40, -146930, 41930, -140
36051, 78, -1083, -38, -141330, 43890, 27440
36071, 135, -1103, -125, -139510, 55230, 47180
36091, -149, -964, -71, -143640, 55160, 42630
36111, -218, -1023, -45, -150360, 60900, 8330
36131, -33, -1008, -253, -144480, 83650, -2170
36151, 75, -981, -350, -147210, 61880, 32270
36171, -9, -1007, -302, -145670, 32270, 60620
36191, -45, -1006, -334, -139650, 9800, 28770
36211, 54, -834, -443, -132790, 20160, -10780
36231, -100, -823, -497, -129080, 48580, -6020
36251, -177, -1012, -456, -118160, 54740, 17150
36271, -49, -818, -510, -115010, 33600, 24990
36291, -255, -839, -582, -118370, 27230, 7000
36311, 59, -588, -675, -109900, 2170, 700
36331, -52, -644, -620, -103250, 5320, -980
36351, -77, -675, -575, -81900, 23940, -6580
36371, 46, -668, -608, -71260, 31780, -8960
36391, -64, -805, -608, -62860, 28630, -21070
36411, 69, -704, -662, -53200, 24360, -19320
36431, 20, -682, -667, -54880, 21630, -4060
36451, -61, -568, -684, -52850, 14770, 2870
36471, 51, -622, -683, -43330, 14910, -7070
36491, 22, -633, -683, -34580, 21770, -11060
36511, 66, -660, -715, -27790, 15960, -13020
36531, 30, -596, -697, -25620, 14770, -5250
36551, 55, -677, -703, -23380, 19810, 140
36571, 70, -565, -720, -16590, 16730, 770
36591, 60, -569, -705, -12880, 10010, -10360
36611, 123, -575, -708, -9100, 10290, -11970
36631, -30, -690, -697, -2590, 3500, -7350
36651, 72, -635, -720, 4270, -5670, 140
36671, 47, -594, -716, 5460, -3780, 910
36691, 18, -567, -713, 8050, -2380, 280
36711, 83, -431, -723, 15750, -11620, 2520
36731, 0, -694, -625, 27440, -23870, 7140
36751, 1, -713, -630, 45990, -40810, 9730
36771, 67, -538, -654, 62300, -32760, -1470
36791, 156, -578, -634, 83090, -39830, -5180
36811, 23, -719, -538, 109550, -42840, -15400
36831, -75, -794, -517, 127820, -43190, -25830
36851, -32, -883, -493, 133840, -37730, -24360
36871, -80, -887, -498, 132230, -38920, -20090
36891, 103, -831, -494, 136150, -42140, -11550
36911, 122, -851, -410, 145460, -54320, -210
36931, -408, -1370, -211, 164150, -61950, -22960
36951, -20, -949, -342, 131530, -43680, -33390
36971, 83, -761, -360, 103040, -30940, 3570
36991, 205, -663, -292, 122710, -37100, 24780
37011, -286, -1628, -123, 161560, -51800, 8750
37031, -56, -1005, -195, 139230, -52500, -26390
37051, 35, -913, -195, 89950, -21560, -9450
37071, 129, -665, -136, 97650, -18480, 22680
37091, 23, -1347, -29, 131530, -35910, 19950
37111, -156, -1225, 22, 153860, -64050, -11760
37131, -95, -1043, 46, 114730, -53760, -41790
37151, 12, -793, 67, 103950, -32480, -16170
37171, 94, -883, 152, 124250, -37730, 3010
37191, 37, -1592, 188, 161980, -72030, -18130
37211, -236, -991, 154, 139720, -94430, -60760
37231, 34, -852, 223, 96530, -45430, -35420
37251, 284, -737, 301, 103040, -19460, 13510
37271, 147, -958, 365, 130340, -24010, 16240
37291, -118, -1339, 401, 162470, -59080, -19390
37311, -122, -882, 418, 143640, -64540, -44450
37331, 90, -804, 427, 112980, -15540, -20580
37351, 274, -683, 548, 123270, 19040, 23310
37371, 281, -965, 596, 144620, -6860, 15820
37391, 11, -1098, 572, 163520, -61950, -20090
37411, -81, -803, 577, 145880, -64190, -41720
37431, 190, -681, 651, 121800, -21490, -25690
37451, 276, -661, 707, 124670, 3850, -2310
37471, 209, -803, 739, 142310, -16450, -17080
37491, -6, -947, 691, 148960, -54670, -48720
37511, 5, -609, 666, 134400, -49350, -66780
37531, 125, -419, 795, 110250, 5460, -49910
37551, 321, -556, 814, 108850, 27370, -22960
37571, 324, -784, 877, 116690, -490, -14420
37591, 122, -716, 830, 106680, -39130, -23660
37611, 138, -411, 857, 79590, -51730, -26600
37631, 323, -412, 897, 69720, -5040, -26250
37651, 246, -497, 903, 81620, 24570, -20860
37671, 223, -500, 900, 86240, 13510, -23940
37691, 220, -362, 944, 77560, -1890, -23800
37711, 254, -322, 915, 72870, 12600, -29050
37731, 151, -326, 896, 76720, 19880, -37520
37751, 173, -345, 922, 76230, 9450, -32060
37771, 189, -438, 936, 68950, 8610, -8890
37791, 159, -206, 899, 57470, 18690, -4060
37811, 270, -209, 968, 45920, 25900, 8820
37831, 313, -283, 976, 43330, 22960, 16520
37851, 203, -319, 955, 45290, 17500, 8820
37871, 151, -239, 956, 41370, 11130, -2170
37891, 143, -110, 974, 30730, 6020, 2520
37911, 144, -217, 965, 26670, 10290, 560
37931, 167, -317, 974, 31850, 9380, 7350
37951, 163, -310, 986, 27930, 3430, 11620
37971, 123, -64, 1001, 13230, 3850, 3080
37991, 172, -186, 1002, 1960, 9660, -6790
38011, 129, -354, 981, 4830, 4830, 4760
38031, 129, -430, 969, -1260, -2100, 11760
38051, 154, -161, 1006, -22120, -7280, 17850
38071, 251, -188, 914, -53340, -27650, 27300
38091, 177, -373, 866, -66360, -31430, 28280
38111, -14, -529, 859, -71540, -10500, 15400
38131, -14, -253, 893, -92820, 22680, 5320
38151, 335, -1, 846, -129850, 38570, 18270
38171, 298, -632, 833, -143220, 23100, 46690
38191, 37, -555, 763, -117530, 15400, 46480
38211, -224, -553, 867, -118860, 13160, 13790
38231, -36, -475, 899, -144270, 35630, -4690
38251, 221, -514, 827, -158060, 51450, 11060
38271, 295, -1034, 828, -146930, 51660, 42280
38291, 250, -883, 827, -147000, 16870, 56070
38311, -177, -718, 739, -174510, -15750, 22820
38331, -2, -627, 665, -180460, 27510, -20090
38351, 156, -1018, 593, -175280, 48440, 7980
38371, 88, -975, 612, -162610, 51870, 28140
38391, -25, -724, 500, -166390, 46760, 22190
38411, -57, -986, 392, -175630, 45990, -13230
38431, -58, -848, 363, -149450, 52430, -16870
38451, 62, -1055, 393, -144130, 63980, -1050
38471, 185, -970, 314, -143710, 55300, 22960
38491, 26, -903, 202, -145810, 30450, 15260
38511, -4, -1011, 185, -132720, 28560, -7700
38531, 15, -1213, 180, -120260, 37310, -7560
38551, 33, -1073, 100, -119770, 43540, 20650
38571, 15, -1109, 31, -129990, 33110, 37940
38591, -52, -1310, 46, -138040, 16240, 36190
38611, 41, -1078, -29, -140770, 40810, 140
38631, -108, -937, -28, -144620, 73080, -14000
38651, 55, -1024, -114, -135520, 55440, -1750
38671, -47, -1006, -176, -133140, 24430, 10640
38691, -36, -1014, -171, -138810, 15610, -1050
38711, -11, -958, -237, -139510, 22680, -1330
38731, -4, -876, -276, -133770, 27300, 6650
38751, 28, -950, -345, -128450, 31360, -4690
38771, -132, -1001, -397, -117390, 20230, -14070
38791, -69, -858, -427, -118650, 6300, -8050
38811, -66, -896, -455, -118020, 5810, 7700
38831, -78, -982, -490, -109270, 8750, 6020
38851, -37, -787, -575, -106260, 14560, 0
38871, -9, -716, -507, -101220, 36610, -13300
38891, 22, -762, -558, -89320, 38920, -10990
38911, 50, -710, -570, -82740, 24080, -10360
38931, 36, -694, -615, -78890, 20720, -6930
38951, 58, -725, -634, -66360, 16660, -8750
38971, 121, -683, -668, -59360, 23660, -11900
38991, 105, -699, -644, -47530, 32480, -16170
39011, 95, -629, -669, -40180, 20860, -13370
39031, 85, -638, -685, -39130, 8960, -2730
39051, 67, -626, -678, -33880, 6720, 5810
39071, 51, -635, -691, -28000, 12180, 4060
39091, 75, -675, -686, -18690, 10920, -4410
39111, 74, -690, -686, -13230, 8190, 1260
39131, 113, -582, -719, -15120, 5110, 8750
39151, 95, -531, -731, -9310, -2100, 9520
39171, 59, -599, -691, 4270, -9590, 8890
39191, -30, -679, -672, 15190, -12460, 9170
39211, 44, -604, -679, 22120, -2170, 12110
39231, 133, -493, -679, 30870, 3850, 10220
39251, 156, -550, -649, 47110, -6510, 7910
39271, -40, -792, -580, 70840, -24850, 7770
39291, 24, -690, -595, 77490, -31430, -4410
39311, 116, -536, -592, 74480, -20580, 2940
39331, 237, -632, -582, 88690, -20860, 10220
39351, -25, -944, -468, 123130, -32270, -490
39371, -201, -1055, -425, 147140, -39270, -37100
39391, -31, -796, -464, 135380, -29120, -40950
39411, 140, -745, -385, 123970, -17500, -14770
39431, 204, -814, -341, 132440, -26460, 4620
39451, -132, -1354, -246, 160580, -39060, -4900
39471, -72, -1080, -217, 157360, -36820, -27650
39491, 120, -886, -289, 109550, -10500, -26460
39511, 214, -819, -243, 101640, -7700, 2380
39531, 301, -928, -141, 122010, -20650, 29470
39551, -164, -1572, -52, 153650, -48720, 8890
39571, -24, -932, -110, 149870, -61810, -47950
39591, 77, -855, -91, 99470, -31920, -41580
39611, 237, -814, -29, 99960, -17430, -1750
39631, 112, -1331, 46, 127120, -35700, 4270
39651, -33, -1369, 55, 151270, -68180, -25620
39671, -42, -864, 96, 115710, -65800, -56420
39691, 155, -802, 82, 84700, -31150, -47390
39711, 315, -736, 208, 103670, -13650, -14280
39731, 166, -1147, 255, 132020, -33040, -3150
39751, 35, -1283, 260, 163660, -73150, -22120
39771, 34, -759, 299, 142800, -84140, -42280
39791, 208, -777, 379, 117180, -45080, -23870
39811, 346, -859, 464, 136080, -9940, 22330
39831, 249, -1073, 509, 159180, -22610, 27650
39851, 68, -1104, 468, 174440, -49770, 350
39871, 23, -640, 521, 154560, -59150, -14560
39891, 178, -678, 556, 129710, -31080, -10710
39911, 300, -953, 646, 144550, 70, 10570
39931, 167, -1028, 645, 159110, -2240, 17570
39951, 50, -804, 669, 148400, -28350, 1610
39971, 83, -753, 741, 121310, -20440, 3850
39991, 182, -671, 672, 103530, -1470, 19950
40011, 213, -708, 738, 99890, 7770, 22260
40031, 176, -707, 806, 100940, 10920, 18270
40051, 120, -589, 833, 99190, 3150, 11340
40071, 180, -610, 863, 90300, -5390, 8890
40091, 224, -536, 864, 90650, 7070, 10290
40111, 249, -631, 869, 97160, 21840, 18060
40131, 113, -629, 869, 100030, 11340, 16100
40151, 1, -638, 853, 95550, -10710, -1120
40171, -34, -429, 856, 83230, -17640, -6160
40191, 103, -377, 919, 66990, 5250, 630
40211, 210, -485, 977, 69930, 30170, 20370
40231, 189, -487, 963, 74900, 29610, 34440
40251, 50, -338, 956, 70700, 3010, 20720
40271, 78, -233, 943, 62300, -14630, 1540
40291, 186, -339, 949, 63630, -9240, -4060
40311, 225, -372, 949, 73500, -1820, 4200
40331, 178, -368, 955, 77350, -5880, 5040
40351, 80, -272, 938, 73850, -17780, 630
40371, 107, -265, 933, 66150, -22890, -9520
40391, 174, -305, 976, 59150, -12670, -5950
40411, 203, -299, 977, 55650, 2380, 9100
40431, 173, -349, 991, 48370, 1960, 15050
40451, 164, 42, 964, 23380, -7560, 2100
40471, 188, -212, 965, 34160, -2170, 3220
40491, 102, -311, 966, 43400, -280, 6300
40511, 114, -281, 963, 32270, 2870, 4480
40531, 156, -172, 998, 15470, 11200, 4550
40551, 160, -34, 986, 11200, 13580, 3780
40571, 135, -252, 988, 17500, 3430, 7490
40591, 61, -381, 973, 11760, -5110, 6230
40611, 5, -276, 1004, -10500, -5390, 2590
40631, 122, 8, 988, -33320, -1820, -2170
40651, 158, -211, 974, -31500, 6230, 6930
40671, 58, -490, 940, -34090, 5390, 4830
40691, -56, -362, 957, -68110, 9590, 3150
40711, 83, -55, 911, -114590, 8120, 11480
40731, 250, -193, 889, -121520, 41650, 20090
40751, 332, -761, 914, -120540, 54880, 30520
40771, -42, -712, 1142, -144270, 53410, 14980
40791, 6, -56, 821, -201810, 41370, -12250
40811, -56, -185, 633, -202650, 10150, -4970
40831, -26, -526, 732, -170380, 24360, 35000
40851, 24, -801, 748, -164570, 26110, 64050
40871, 239, -993, 847, -173040, 18130, 53130
40891, -157, -610, 844, -182210, 51520, 3780
40911, -171, -723, 570, -181090, 60130, -30100
40931, -154, -992, 593, -166810, 38220, -350
40951, -162, -930, 585, -185150, 28490, 5810
40971, 219, -944, 522, -204120, 4200, 7630
40991, 28, -1000, 454, -194880, 24360, 5880
41011, -338, -949, 426, -171010, 83510, -21000
41031, -229, -1095, 309, -163030, 89460, -28350
41051, 150, -1100, 313, -172340, 53830, 13020
41071, 145, -1156, 186, -178990, 52290, 21770
41091, -53, -1023, 153, -159180, 69650, -3290
41111, -117, -849, 81, -163450, 70070, -11830
41131, 9, -1063, 33, -153510, 71540, 7280
41151, 75, -1130, -46, -145320, 56770, 35070
41171, -14, -1139, -94, -139370, 34440, 26110
41191, -169, -973, -158, -139650, 37870, 2940
41211, -98, -983, -207, -134050, 56770, -7770
41231, -26, -1061, -225, -124390, 59500, 11970
41251, -64, -1137, -219, -118510, 45430, 18620
41271, -45, -881, -248, -126700, 37800, 8750
41291, -52, -913, -327, -134540, 39060, 11900
41311, -131, -989, -384, -124740, 35840, 28910
41331, -88, -863, -437, -115990, 39130, 29610
41351, -143, -867, -446, -105420, 39410, 12040
41371, -87, -853, -495, -95550, 28840, -5110
41391, -52, -879, -502, -88130, 27020, -13720
41411, -49, -803, -523, -85050, 38220, -11900
41431, -79, -770, -541, -79800, 40530, -9800
41451, 25, -768, -554, -74270, 37940, -17920
41471, 11, -769, -566, -66080, 33250, -23660
41491, 17, -722, -585, -60060, 20300, -14070
41511, 74, -677, -604, -60410, 17990, -8820
41531, 6, -725, -614, -52430, 19740, -12320
41551, 30, -662, -644, -40460, 14280, -15470
41571, 18, -581, -644, -33460, 16800, -16870
41591, 95, -611, -637, -23800, 16030, -12320
41611, 69, -671, -621, -10640, 7490, -140
41631, -7, -680, -624, 1330, 140, -5530
41651, 65, -630, -636, 7420, -1050, -14420
41671, 95, -584, -643, 11620, -910, -10360
41691, 96, -635, -631, 24150, -5390, -4480
41711, 3, -788, -561, 40740, -15050, -560
41731, 55, -764, -575, 51800, -24710, -4550
41751, 132, -607, -588, 52220, -23310, -3290
41771, 211, -525, -577, 59710, -20020, -4830
41791, -171, -835, -514, 88970, -29540, -13930
41811, -123, -1146, -418, 128030, -44030, -29610
41831, 77, -863, -445, 122010, -40040, -13650
41851, 74, -740, -478, 97020, -21630, 4130
41871, -32, -1018, -393, 104580, -27930, 2590
41891, -35, -1261, -304, 132580, -45710, -7910
41911, 30, -961, -363, 133070, -43610, -10640
41931, 47, -786, -363, 105490, -32480, -6300
41951, 181, -765, -268, 103880, -33460, 14840
41971, -144, -1368, -182, 130550, -42000, 20230
41991, -106, -1286, -151, 164500, -59150, -3850
42011, -5, -820, -223, 141260, -56910, -26670
42031, 139, -762, -126, 99190, -40180, -18270
42051, 65, -971, -28, 109410, -33320, 24780
42071, 51, -1233, 53, 144410, -43610, 29820
42091, -52, -1113, 79, 163240, -64820, -7770
42111, -113, -835, 101, 141470, -73430, -52010
42131, 25, -844, 157, 117110, -61320, -50400
42151, 172, -1118, 250, 124460, -50260, -13370
42171, 161, -1150, 276, 145530, -51310, 7210
42191, 12, -1182, 298, 149100, -61320, -14000
42211, 19, -931, 333, 131600, -62930, -38500
42231, 59, -720, 315, 103950, -52360, -37170
42251, 197, -831, 405, 103110, -31990, -17220
42271, 160, -1136, 455, 122920, -26110, 8120
42291, -120, -1118, 484, 133350, -53900, -12880
42311, -15, -834, 502, 106400, -33530, -18480
42331, 114, -735, 553, 104370, -910, 560
42351, 202, -835, 620, 122500, 8540, 3990
42371, 209, -916, 647, 139580, -17010, -16240
42391, 17, -742, 609, 136710, -41930, -50050
42411, 102, -703, 648, 131110, -38500, -47810
42431, 363, -630, 729, 132580, -22190, -34580
42451, 302, -846, 725, 142310, -28210, -39760
42471, 76, -847, 745, 139020, -47530, -64330
42491, 74, -596, 671, 113680, -42140, -66010
42511, 227, -383, 798, 94710, -2240, -36050
42531, 385, -556, 875, 100940, 12110, -9100
42551, 329, -634, 857, 104300, 0, -8400
42571, 196, -521, 880, 95130, -3010, -15820
42591, 210, -342, 905, 82810, 10570, -18830
42611, 315, -411, 969, 88760, 29260, -11200
42631, 348, -483, 944, 94220, 27790, -12950
42651, 289, -493, 932, 92610, 9170, -14630
42671, 204, -372, 948, 78330, 3080, -17570
42691, 288, -261, 961, 69860, 11620, -18060
42711, 273, -294, 945, 69440, 13720, -12530
42731, 225, -281, 931, 72170, 11970, -5670
42751, 222, -446, 930, 72030, 6720, 2590
42771, 215, -345, 918, 56980, 4200, 2030
42791, 167, -106, 927, 37030, 11340, -3360
42811, 231, -169, 923, 37730, 21350, -4340
42831, 224, -301, 919, 43260, 18130, 3780
42851, 149, -209, 930, 40880, 13160, 770
42871, 181, -127, 943, 30450, 4690, -1680
42891, 122, -104, 923, 26950, 1400, -4060
42911, 128, -193, 943, 32550, -910, -3990
42931, 171, -302, 963, 32620, -420, -700
42951, 147, -304, 994, 21840, 1820, -770
42971, 207, -192, 1010, 980, 7910, -2800
42991, 208, 50, 973, -13090, 7490, 3850
43011, 238, -379, 971, -13020, 6020, 3290
43031, 207, -221, 1014, -10710, 7140, 11830
43051, 171, -428, 988, -32550, 5390, 9940
43071, 142, -25, 1018, -48650, -1330, 23450
43091, 217, -305, 986, -64890, 560, 22190
43111, 112, -177, 965, -53760, 12810, 28000
43131, 146, -474, 971, -51940, 17500, 17570
43151, 168, -186, 957, -58660, 13650, 22400
43171, 301, -501, 991, -66990, 9870, 19040
43191, 126, -272, 902, -70420, 5110, 26810
43211, 9, -554, 890, -71960, 3990, 2940
43231, 36, -208, 931, -74060, 16590, 8330
43251, 285, -738, 943, -92120, 23870, 27230
43271, 335, -438, 999, -87500, 26110, 58030
43291, 123, -515, 862, -105840, 10640, 46760
43311, -100, -436, 874, -87570, 10570, 12740
43331, -94, -262, 830, -82950, 20370, 3430
43351, 172, -550, 860, -61740, 27370, 17850
43371, 387, -615, 935, -25620, 33530, 51660
43391, 124, -537, 852, -4550, 20720, 33180
43411, -41, -488, 823, 21140, -3220, -15120
43431, 37, -557, 929, 46830, -560, -22470
43451, 173, -627, 950, 64610, 12740, -4760
43471, 105, -778, 941, 78890, 3360, -280
43491, -3, -493, 938, 78960, -6300, 280
43511, 42, -404, 940, 62510, -1120, 350
43531, 181, -397, 950, 63700, 6300, 7770
43551, 194, -514, 970, 72240, 9030, 13790
43571, 117, -628, 953, 78750, -4130, 10360
43591, -6, -303, 900, 65520, -12880, 12320
43611, 17, -240, 917, 44030, 70, 4060
43631, 188, -326, 965, 45570, 20230, 10780
43651, 158, -388, 943, 52570, 22470, 27090
43671, 18, -300, 923, 54530, 2100, 18760
43691, 36, -253, 930, 48440, -13370, 2310
43711, 40, -268, 909, 47390, -12110, -3080
43731, 90, -522, 946, 55090, -3570, -2450
43751, 82, -444, 940, 57960, 840, -1960
43771, 0, -206, 925, 40530, -1750, 2940
43791, 28, -191, 944, 23870, -2520, -8610
43811, 43, -244, 990, 28910, -210, -5320
43831, 127, -414, 1042, 37380, 1120, 2030
43851, 67, -283, 1081, 39970, 2590, 10220
43871, -2, -156, 1040, 31360, -770, 5880
43891, -14, -241, 1045, 29540, -4760, 280
43911, -50, -293, 1047, 35980, -350, 10290
43931, -29, -244, 1072, 34930, 8470, 12320
43951, -57, -134, 1019, 26950, 14910, 9310
43971, -42, -118, 1010, 21910, 13020, 0
43991, -118, -72, 1012, 24500, 12810, -2800
44011, -46, -199, 1046, 26810, 16590, -4620
44031, -34, -193, 1057, 28840, 18200, -1540
44051, -28, -17, 1067, 21980, 15960, 2030
44071, -120, 92, 1030, 11620, 16100, -5250
44091, -113, 17, 1022, 11970, 15890, -12530
44111, -114, -71, 1019, 21840, 16520, -10430
44131, -163, 17, 1040, 21070, 18970, -14140
44151, -97, 130, 1057, 12320, 21770, -20370
44171, -103, 104, 1038, 14630, 20930, -26600
44191, -163, 63, 999, 21000, 15470, -33740
44211, -171, 32, 1001, 22960, 13020, -37590
44231, -112, -15, 1010, 19040, 17710, -39760
44251, -106, 125, 1018, 11690, 21490, -43890
44271, -7, 102, 1012, 9870, 19950, -49350
44291, -53, 41, 1018, 13650, 12110, -49070
44311, -58, 96, 1018, 11970, 5880, -52150
44331, -28, 10, 1026, 11130, 8400, -46480
44351, 49, 35, 1049, 9030, 13510, -42280
44371, 16, 65, 1005, 7420, 11690, -44940
44391, 13, 15, 999, 10990, 7840, -48300
44411, -20, 62, 979, 9870, 8190, -47390
44431, 38, 16, 979, 9520, 11550, -40040
44451, 42, -13, 974, 9590, 12950, -33880
44471, 55, -25, 972, 9380, 12460, -28070
44491, -28, -1, 948, 5320, 12810, -30870
44511, 13, 5, 974, 4760, 18480, -27930
44531, 88, -12, 1028, 5810, 19180, -18340
44551, 69, -65, 1044, 9170, 11410, -15260
44571, 27, 27, 1030, 9380, 3710, -18690
44591, -12, -56, 1039, 12110, -1890, -17640
44611, 7, -32, 1017, 11410, -5110, -15260
44631, 56, -5, 1045, 9940, -2590, -8680
44651, 29, -48, 1033, 10010, -2520, -5950
44671, 41, -61, 1036, 11690, -6720, 210
44691, 41, -15, 1026, 7840, -8610, 2660
44711, -2, -93, 1008, 7630, -9590, 2590
44731, 7, 0, 1000, 6580, -10990, 6860
44751, 43, -75, 1010, 6020, -11200, 12390
44771, 127, -94, 1041, 7980, -11060, 18340
44791, 125, -54, 1033, 4830, -11970, 20930
44811, 72, -83, 993, 5040, -18620, 21070
44831, 75, -77, 973, 4340, -21980, 22540
44851, 93, -48, 962, 5040, -20510, 26600
44871, 51, -203, 969, 8610, -20650, 34580
44891, 45, -120, 965, 8120, -22120, 39760
44911, 72, 2, 966, 1960, -19670, 41230
44931, 57, -116, 981, 3570, -18970, 46550
44951, 110, -148, 1016, 11410, -21070, 56630
44971, 73, -127, 1010, 9660, -24080, 58310
44991, -20, -68, 994, 7350, -26390, 55930
45011, -53, -154, 972, 9310, -27300, 59010
45031, -97, -139, 975, 10640, -28280, 67410
45051, -53, -87, 1007, 6720, -24710, 69020
45071, 8, -44, 1041, 2100, -16730, 70560
45091, -36, -16, 1043, 560, -15820, 68250
45111, -41, -107, 1064, 3080, -20230, 62440
45131, -49, -126, 1091, 5250, -18690, 60200
45151, -74, 6, 1089, -140, -16030, 55300
45171, -7, 28, 1080, -7210, -14210, 49910
45191, 23, -156, 1050, -5460, -11620, 53480
45211, -45, -31, 1034, -2870, -10780, 52780
45231, -38, 47, 1053, -10150, -9730, 41860
45251, 40, -61, 1075, -12180, -4060, 37660
45271, 12, -32, 1056, -8260, 490, 40180
45291, -34, -125, 1055, -9100, -3150, 36050
45311, -63, -34, 1059, -10920, -5040, 30660
45331, -62, -32, 1077, -16940, -2660, 23870
45351, -10, 0, 1072, -17850, 6020, 23800
45371, -27, -112, 1050, -15050, 11270, 25480
45391, -147, -67, 1003, -10780, 11830, 21560
45411, -147, -18, 989, -13720, 14560, 11270
45431, -60, 73, 995, -17570, 28840, 10290
45451, 49, -12, 1052, -16170, 42210, 13020
45471, -34, -45, 1044, -6790, 42000, 12390
45491, -144, -53, 1052, -980, 31290, -1750
45511, -30, 10, 1112, -3010, 28980, -8190
45531, 3, 0, 1132, -7490, 37590, -5320
45551, -26, 24, 1115, -3640, 39340, -5320
45571, -86, 6, 1093, -420, 31500, -11970
45591, -110, 29, 1083, 2100, 23380, -18340
45611, -49, 56, 1072, 1330, 22820, -24080
45631, -85, 40, 1039, 1680, 24570, -24640
45651, -172, -33, 1018, 3430, 21070, -27930
45671, -169, 23, 1022, 5180, 17220, -32550
45691, -89, -3, 1039, 2380, 21490, -33600
45711, -88, 26, 1038, 980, 25900, -30800
45731, -100, 9, 1025, 140, 24150, -31990
45751, -117, -38, 1021, 2520, 20720, -36820
45771, -129, -54, 1012, 2660, 19950, -41160
45791, -82, 19, 1008, -140, 20230, -42140
45811, -56, -4, 1009, -4900, 22470, -41370
45831, -108, -41, 983, -3850, 19950, -39410
45851, -118, -16, 989, -1470, 13650, -44310
45871, -116, -58, 994, -1750, 12600, -45290
45891, -64, -18, 1004, -2030, 15330, -43820
45911, -17, -76, 1012, -1610, 15330, -41230
45931, -31, -100, 1011, 1750, 12670, -39200
45951, -45, -81, 1040, 3640, 8750, -41790
45971, -32, -109, 1054, 3010, 8680, -40180
45991, -48, -144, 1053, 4130, 8960, -36190
46011, -40, -106, 1046, 3500, 7490, -32130
46031, -28, -98, 1042, 3150, 7700, -29610
46051, -77, -134, 1025, 4340, 7490, -30660
46071, -63, -97, 1022, 4480, 7910, -29050
46091, -50, -129, 1025, 4690, 8190, -25340
46111, -80, -141, 1001, 5250, 4830, -26530
46131, -54, -170, 996, 6160, 3570, -25060
46151, -36, -65, 995, 2590, 5600, -24780
46171, -14, -84, 998, 6440, 6790, -21280
46191, -15, -137, 1011, 10360, 4340, -14840
46211, 11, -162, 1026, 10500, 2310, -8540
46231, 33, -145, 1017, 8260, 630, -7000
46251, 51, -124, 1013, 7140, -2240, -6650
46271, 61, -127, 1007, 8050, -5810, -2870
46291, 71, -121, 977, 8400, -7630, 700
46311, 13, -181, 960, 10360, -10360, 4900
46331, -56, -117, 949, 10500, -13090, 5460
46351, -59, -179, 951, 12600, -14560, 10500
46371, -21, -222, 964, 15260, -14560, 16380
46391, 4, -159, 968, 13230, -16170, 21490
46411, 32, -244, 969, 13370, -16940, 21350
46431, 5, -207, 959, 13160, -20370, 24360
46451, -55, -227, 963, 10360, -23870, 25200
46471, -40, -296, 986, 12250, -24850, 33250
46491, -30, -233, 981, 8120, -26390, 39690
46511, -31, -267, 963, 4060, -28770, 40600
46531, -24, -205, 964, 2100, -30870, 41930
46551, 2, -70, 964, -3080, -30240, 43820
46571, 24, -211, 1000, 210, -27160, 50540
46591, -8, -197, 1030, 6020, -26460, 58590
46611, -68, -221, 1043, 1330, -28420, 57120
46631, -95, -159, 1051, -1470, -28140, 56980
46651, -103, -132, 1034, -5250, -25970, 56420
46671, -116, -166, 1028, -2940, -23380, 59010
46691, -85, -180, 1038, -3710, -21140, 58800
46711, -62, -111, 1057, -7840, -18130, 58310
46731, -88, -193, 1054, -9800, -17850, 55370
46751, -138, -159, 1046, -7980, -17850, 52290
46771, -127, -179, 1035, -11760, -16940, 49280
46791, -118, -146, 1016, -14280, -13510, 50260
46811, -106, -124, 1025, -16450, -8190, 43750
46831, -65, -124, 1010, -16870, -4200, 39130
46851, -82, -172, 998, -14840, -5600, 35980
46871, -115, -134, 993, -13440, -6300, 29190
46891, -98, -121, 1003, -13650, -4480, 24710
46911, -57, -101, 1006, -13090, -700, 23240
46931, -43, -148, 993, -11410, 840, 21070
46951, -88, -145, 981, -7700, 0, 15120
46971, -93, -115, 1002, -8050, -280, 7490
46991, -82, -126, 1025, -8400, 2800, 5530
47011, -48, -130, 1035, -7280, 6230, 4550
47031, -30, -196, 1034, -5250, 9240, 3780
47051, -85, -148, 1020, -4200, 8260, 770
47071, -86, -126, 1022, -5320, 8190, -7070
47091, -75, -126, 1028, -4620, 10990, -9450
47111, -73, -94, 1052, -2800, 14140, -8120
47131, -68, -220, 1058, -1820, 15470, -7980
47151, -106, -79, 1055, -70, 13930, -9310
47171, -70, -158, 1070, -3920, 12950, -14980
47191, -97, -122, 1064, -2590, 16240, -14840
47211, -93, -119, 1058, -3500, 17290, -20650
47231, -106, -86, 1057, -4060, 18900, -23380
47251, -87, -120, 1068, -3710, 19880, -24430
47271, -89, -108, 1064, -2660, 22120, -23100
47291, -114, -110, 1055, -1820, 22470, -24080
47311, -102, -148, 1056, -1050, 22750, -26670
47331, -87, -108, 1058, -1120, 25060, -28910
47351, -120, -116, 1044, -3010, 25130, -31500
47371, -105, -104, 1030, -1470, 24080, -33250
47391, -103, -109, 1027, -210, 24430, -33810
47411, -84, -152, 1021, 1470, 25690, -34510
47431, -104, -101, 1023, 1960, 26180, -36960
47451, -84, -145, 1043, 1400, 26810, -38220
47471, -103, -150, 1042, 2380, 27930, -37590
47491, -117, -124, 1052, 3220, 26530, -38080
47511, -66, -146, 1071, 2800, 26320, -38920
47531, -23, -167, 1061, 3430, 26600, -36120
47551, -68, -159, 1039, 3290, 23800, -35770
47571, -54, -159, 1039, 2030, 19390, -38290
47591, -44, -163, 1033, 1120, 19250, -38710
47611, -46, -127, 1023, 1120, 19180, -36470
47631, -52, -182, 1003, 2030, 17220, -35560
47651, -52, -179, 1003, 3780, 16520, -32970
47671, -22, -167, 1012, 3500, 15330, -31430
47691, -48, -163, 1008, 3150, 15680, -27790
47711, -85, -211, 1013, 6020, 14070, -26110
47731, -91, -266, 1026, 9170, 10990, -27020
47751, -47, -232, 1052, 8330, 8750, -23590
47771, 20, -205, 1059, 2520, 8050, -22540
47791, 20, -199, 1032, -1680, 560, -21560
47811, 21, -257, 997, -630, -5670, -18130
47831, -6, -305, 981, -1190, -9520, -15540
47851, -42, -274, 967, -5320, -12460, -15330
47871, -33, -238, 921, -7350, -12460, -12600
47891, 4, -270, 882, -3500, -12390, -6090
47911, 14, -269, 853, -980, -14630, -5180
47931, 9, -270, 863, 1260, -16170, -2170
47951, 18, -271, 906, 3850, -15610, 1190
47971, 28, -322, 931, 10920, -15890, 9100
47991, -7, -351, 933, 14840, -18550, 11200
48011, -11, -383, 929, 15960, -20580, 14910
48031, 29, -350, 936, 11620, -22260, 20580
48051, 36, -308, 925, 8960, -24850, 26180
48071, 41, -316, 930, 10850, -26880, 28070
48091, -15, -358, 909, 13790, -30240, 29890
48111, -50, -293, 908, 15050, -32690, 34370
48131, -18, -328, 927, 14070, -31710, 39690
48151, -27, -254, 943, 15330, -30730, 44170
48171, -38, -245, 955, 17150, -32200, 45290
48191, -26, -357, 977, 22330, -32620, 46200
48211, -52, -312, 998, 21280, -32900, 46900
48231, -29, -303, 1014, 15050, -31010, 48790
48251, -18, -229, 1024, 12530, -27370, 50190
48271, 31, -338, 1050, 13230, -25480, 51450
48291, 10, -275, 1057, 13860, -26110, 53270
48311, 18, -260, 1051, 8400, -27230, 50610
48331, 7, -240, 1047, 6930, -24500, 52920
48351, -49, -233, 1015, 5460, -22400, 53970
48371, -118, -222, 985, 7840, -23030, 57610
48391, -123, -276, 991, 9380, -21560, 59290
48411, -121, -207, 1004, 8050, -16170, 59920
48431, -93, -182, 1023, 5250, -10570, 53550
48451, -88, -145, 1019, 4900, -7000, 50260
48471, -104, -185, 1013, 8470, -5670, 44800
48491, -125, -205, 1015, 11410, -4900, 39270
48511, -116, -136, 1030, 9240, -2310, 34790
48531, -63, -159, 1041, 3920, 1750, 32340
48551, -99, -185, 1030, 5110, 3500, 30590
48571, -159, -136, 1011, 5110, 2170, 20160
48591, -135, -129, 1016, 4200, 5600, 12040
48611, -100, -129, 1026, 2800, 10640, 12110
48631, -77, -101, 1030, 770, 13510, 8120
48651, -38, -75, 1035, 770, 14630, 3710
48671, -75, -76, 1030, 2730, 14630, -2030
48691, -81, -167, 1033, 6090, 13370, -10150
48711, -101, -62, 1032, 5250, 14560, -12390
48731, -47, -82, 1041, -350, 16310, -13510
48751, -57, -70, 1037, 1680, 18200, -12810
48771, -81, -80, 1039, 3360, 16940, -17500
48791, -94, -73, 1043, 4900, 16100, -21350
48811, -114, -56, 1041, 4760, 16170, -25340
48831, -96, -50, 1051, 4550, 18130, -28140
48851, -91, -43, 1064, 5670, 21350, -27160
48871, -94, -73, 1080, 7140, 22890, -27020
48891, -123, -67, 1076, 8400, 23590, -30240
48911, -124, -36, 1075, 5880, 23380, -35350
48931, -113, 7, 1076, 4410, 24640, -38150
48951, -98, -71, 1068, 6020, 25480, -38570
48971, -121, -55, 1058, 8330, 24570, -36750
48991, -102, -78, 1054, 7420, 23590, -39760
49011, -102, -10, 1056, 5040, 23590, -42490
49031, -99, -44, 1062, 2030, 25060, -44450
49051, -61, -54, 1082, 5040, 26180, -43120
49071, -86, -98, 1077, 5670, 24290, -42560
49091, -148, -115, 1042, 4550, 18130, -44310
49111, -131, -76, 1023, 1400, 13720, -49140
49131, -128, -103, 1001, -2450, 14210, -51030
49151, -135, -112, 987, -2870, 13440, -52570
49171, -108, -80, 997, -2450, 13370, -52150
49191, -62, -128, 1015, -2660, 16100, -51100
49211, -75, -83, 1006, -420, 18410, -48860
49231, -52, -121, 1007, 1260, 17220, -49420
49251, -57, -94, 1012, 4900, 16170, -47740
49271, -15, -115, 1015, 6230, 15960, -47320
49291, 15, -105, 1016, 7560, 15400, -44170
49311, 26, -142, 1020, 9100, 14140, -42280
49331, -34, -144, 1010, 11480, 10290, -40390
49351, -24, -139, 1031, 12600, 5950, -40180
49371, 28, -211, 1049, 13300, 4480, -34580
49391, 0, -242, 1021, 14070, 4060, -26390
49411, 16, -192, 1014, 11620, -140, -24710
49431, 55, -180, 1018, 5600, -3570, -23730
49451, 56, -167, 1009, 2940, -4620, -21490
49471, 76, -205, 997, 4830, -6090, -16310
49491, 87, -254, 997, 7560, -6650, -11200
49511, 69, -217, 988, 8400, -9520, -4410
49531, 29, -118, 951, 3570, -14070, -1050
49551, 8, -154, 921, 1260, -16240, 1050
49571, 8, -199, 936, 9380, -15610, 7490
49591, -2, -236, 945, 16240, -16380, 15610
49611, -3, -177, 937, 18060, -17780, 19530
49631, 24, -225, 947, 17290, -18200, 25760
49651, 69, -247, 968, 22260, -19320, 29610
49671, 129, -243, 983, 22610, -25060, 31850
49691, 121, -213, 992, 22400, -36330, 32760
49711, -41, -256, 942, 25690, -53340, 29330
49731, -84, -337, 946, 27580, -58170, 33040
49751, -107, -356, 965, 21350, -49770, 39760
49771, -101, -258, 981, 10920, -41580, 39970
49791, -60, -234, 987, 5460, -35840, 42910
49811, -10, -248, 994, 6720, -32970, 49000
49831, -33, -185, 978, 6510, -34020, 46480
49851, -37, -252, 988, 8610, -31850, 46620
49871, -4, -119, 997, 4760, -29400, 47530
49891, 8, -158, 1004, 5600, -25970, 48090
49911, 68, -206, 1029, 10710, -20230, 51450
49931, 72, -67, 1021, 9030, -18900, 50610
49951, 44, -149, 1005, 10710, -19740, 49420
49971, 27, -146, 1002, 12250, -18340, 49840
49991, 60, -150, 1014, 8890, -14770, 51240
50011, 38, -145, 1031, 6720, -11830, 50050
50031, 53, -45, 1040, 2170, -9870, 46480
50051, 58, -101, 1052, 1260, -8050, 45920
50071, -19, -121, 1020, 3500, -8120, 43750
50091, -94, -158, 1000, 2870, -8540, 39900
50111, -84, -65, 1048, -2100, -2380, 34720
50131, -6, -44, 1095, -6930, 7560, 32970
50151, -13, -91, 1087, -5530, 12110, 31990
50171, -45, -159, 1070, -3010, 10710, 27510
50191, -73, -92, 1071, -7070, 10920, 24080
50211, -36, -89, 1100, -12670, 13510, 18060
50231, -35, -52, 1101, -13650, 17360, 12950
50251, -39, -109, 1090, -10220, 19320, 10010
50271, -84, -160, 1065, -8330, 19040, 8120
50291, -117, -44, 1058, -11480, 19390, 630
50311, -76, -32, 1072, -14280, 23870, -4480
50331, -122, -61, 1051, -9800, 25830, -4340
50351, -122, -72, 1049, -7070, 24220, -11550
50371, -64, -62, 1061, -6440, 27230, -13650
50391, -52, -2, 1061, -7630, 30660, -16940
50411, -36, -52, 1073, -5180, 30590, -21770
50431, -94, -20, 1048, -840, 27510, -26250
50451, -131, -61, 1048, 770, 23450, -31150
50471, -86, -15, 1064, 700, 25620, -31290
50491, -34, -8, 1082, -140, 30170, -31150
50511, -46, 21, 1059, 2030, 29400, -34020
50531, -110, -12, 1040, 6300, 22610, -39200
50551, -118, -13, 1035, 8890, 20090, -43820
50571, -40, 57, 1065, 6580, 24500, -45290
50591, -8, 24, 1066, 7910, 26390, -41860
50611, -96, -74, 1050, 16240, 17360, -43820
50631, -162, -30, 1050, 21000, 9520, -52850
50651, -110, -58, 1075, 16590, 14000, -55020
50671, -51, -23, 1095, 13510, 24850, -50750
50691, -8, -105, 1121, 12670, 29680, -48230
50711, -78, -109, 1087, 13440, 26390, -48440
50731, -75, -64, 1062, 10780, 18620, -52080
50751, -22, -48, 1045, 7350, 18340, -51030
50771, -24, -46, 1016, 6930, 20230, -49700
50791, -41, -48, 995, 8260, 17150, -49420
50811, -9, -115, 988, 10010, 16170, -48090
50831, -52, -59, 976, 11760, 17010, -43330
50851, -30, -100, 972, 12040, 14910, -41860
50871, 12, -167, 979, 13720, 14700, -38080
50891, 2, -77, 977, 13020, 14980, -33250
50911, 38, -25, 984, 8470, 12670, -33880
50931, 64, -96, 992, 9240, 10570, -32200
50951, 13, -134, 987, 15330, 6440, -25900
50971, 8, -180, 983, 18200, 840, -22400
50991, 0, -131, 984, 16310, -910, -19670
51011, 8, -78, 979, 13580, 700, -17290
51031, 31, -152, 984, 15120, 210, -11550
51051, 30, -174, 987, 19670, -4410, -4270
51071, 40, -157, 991, 20160, -8820, -210
51091, 39, -114, 982, 17640, -11060, 3430
51111, 41, -129, 973, 15680, -11690, 8680
51131, 30, -109, 977, 17850, -12250, 13930
51151, 49, -127, 975, 20440, -14000, 18480
51171, 8, -133, 974, 22960, -17150, 23660
51191, 28, -145, 978, 24710, -19740, 28560
51211, -14, -147, 973, 24290, -20720, 33810
51231, -10, -138, 993, 23660, -21350, 36540
51251, -34, -195, 983, 23590, -21350, 39480
51271, -79, -182, 960, 23940, -23660, 40530
51291, -38, -62, 975, 21280, -25270, 40530
51311, 57, -108, 967, 15890, -21770, 45570
51331, 60, -127, 965, 15260, -21280, 50330
51351, 1, -46, 976, 19670, -24640, 53060
51371, -52, -79, 1019, 19600, -28280, 49280
51391, -72, -115, 1042, 21910, -28000, 49140
51411, -73, -112, 1062, 21560, -26740, 58170
51431, -76, -95, 1059, 20020, -21700, 63280
51451, -73, -93, 1059, 16590, -21210, 64960
51471, -100, -12, 1048, 11130, -20300, 62650
51491, -81, -83, 1046, 10920, -16520, 58800
51511, -77, -46, 1036, 9520, -14070, 56420
51531, -55, -15, 1053, 6860, -13160, 55370
51551, 24, -41, 1091, 4690, -9100, 56560
51571, 11, 0, 1059, 70, -4760, 54040
51591, -11, 20, 1013, -1540, -2240, 50680
51611, -9, 28, 1020, -1680, 560, 51380
51631, 57, 2, 1055, -2450, 70, 52080
51651, 36, 38, 1063, -6230, -70, 49980
51671, 22, 30, 1056, -8890, -630, 45220
51691, 11, -34, 1053, -8680, -1890, 45360
51711, -87, 49, 1021, -11830, -3010, 40460
51731, -108, 1, 1007, -13790, -140, 36260
51751, -98, 13, 1024, -13230, 5670, 35980
51771, -54, 48, 1049, -17640, 7210, 32900
51791, -45, 4, 1065, -17990, 6230, 28140
51811, -71, 10, 1068, -17500, 4830, 21280
51831, -61, 71, 1058, -20230, 8330, 12950
51851, -69, -22, 1043, -17360, 10360, 9870
51871, -91, -21, 1037, -17500, 11060, 8610
51891, -96, 30, 1037, -22330, 13230, 4130
51911, -97, 101, 1041, -23240, 16030, -1680
51931, -57, 50, 1047, -20650, 19460, -3500
51951, -78, -42, 1037, -12110, 20230, -3290
51971, -80, -21, 1034, -10920, 17920, -10780
51991, -98, -7, 1039, -14630, 16800, -13650
52011, -91, 87, 1048, -14910, 18620, -15680
52031, -18, -29, 1055, -10430, 21140, -16800
52051, -52, -38, 1046, -5810, 18900, -15820
52071, -73, 16, 1056, -7070, 15120, -22540
52091, -77, 44, 1052, -8680, 16100, -27510
52111, -119, 37, 1027, -3500, 14910, -28070
52131, -115, -32, 1047, 3360, 17080, -28280
52151, -51, -36, 1082, 3920, 23870, -25970
52171, -62, 10, 1078, 1960, 25550, -28630
52191, -81, -56, 1065, 4340, 21490, -34790
52211, -143, -56, 1041, 5040, 17640, -37030
52231, -106, -40, 1048, 4340, 18480, -37520
52251, -58, -9, 1050, 1680, 21700, -36470
52271, -54, -27, 1043, 2450, 21140, -35350
52291, -83, -31, 1030, 4620, 16450, -36330
52311, -112, -42, 1011, 4690, 14280, -39270
52331, -97, -23, 1009, 5250, 15960, -37800
52351, -69, -35, 1020, 4830, 18200, -35420
52371, -36, -38, 1031, 5460, 18340, -33670
52391, -27, -65, 1034, 6160, 16800, -32410
52411, -86, -88, 1010, 7210, 13300, -34230
52431, -47, -113, 1013, 7910, 10010, -36820
52451, -63, -28, 1009, 4760, 9800, -35070
52471, -63, -49, 997, 2240, 9310, -35420
52491, -76, -52, 987, 5880, 8120, -32550
52511, -89, -117, 1001, 8890, 6860, -30240
52531, -86, -170, 1031, 10850, 5950, -28700
52551, -99, -116, 1042, 7210, 4690, -29190
52571, -49, -69, 1029, 1540, 3990, -30100
52591, -63, -79, 988, 350, 2940, -26390
52611, -98, -109, 960, 3360, -70, -25760
52631, -88, -127, 963, 5740, -1750, -27160
52651, -77, -81, 980, 5180, -70, -26880
52671, -41, -123, 993, 5180, 2730, -26460
52691, -58, -98, 993, 8960, 3570, -22750
52711, -43, -109, 1000, 11130, 2660, -20930
52731, -53, -188, 1010, 13930, 2450, -18270
52751, -68, -122, 1001, 14770, 1890, -17080
52771, -35, -70, 996, 10360, 980, -19670
52791, 2, -91, 995, 9660, 420, -16310
52811, -11, -117, 981, 14490, -770, -11200
52831, -28, -174, 976, 19320, -3570, -9800
52851, -47, -133, 986, 19530, -6160, -8750
52871, -27, -112, 997, 15400, -7140, -7350
52891, -26, -93, 1013, 14000, -7140, -4340
52911, -35, -166, 1003, 15680, -7630, -280
52931, -62, -190, 1002, 19320, -10920, 4130
52951, -67, -99, 1000, 17780, -13720, 6440
52971, -3, -109, 1008, 12110, -14210, 5880
52991, -14, -68, 1004, 12110, -13440, 8540
53011, -33, -113, 1003, 13580, -17850, 8890
53031, -68, -170, 995, 15820, -22190, 10150
53051, -79, -96, 980, 14140, -23170, 12460
53071, -21, -96, 980, 9660, -20860, 13860
53091, -3, -91, 996, 9380, -18550, 17360
53111, -3, -90, 1004, 10150, -18060, 18060
53131, -49, -98, 999, 9870, -21840, 17080
53151, -63, -143, 1012, 10920, -25340, 16380
53171, -49, -75, 1036, 10850, -22260, 18900
53191, 6, -70, 1047, 6930, -17080, 20930
53211, -12, -41, 1041, 4760, -14420, 24710
53231, -21, -65, 1041, 5110, -17080, 26320
53251, -54, -95, 1039, 6720, -18480, 23450
53271, -64, -79, 1051, 6720, -18830, 20930
53291, -75, 40, 1042, 2870, -17010, 20300
53311, -33, -9, 1042, 2240, -8680, 21910
53331, -47, -50, 1023, 5880, -9870, 20090
53351, -70, -40, 1015, 3570, -12250, 15540
53371, -48, 16, 1020, -1120, -11410, 12320
53391, -10, 34, 1032, -1610, -7840, 11970
53411, -17, 8, 1033, 910, -5670, 10570
53431, 27, -36, 1051, 2240, -5530, 12320
53451, 10, -35, 1059, -490, -8260, 11410
53471, 0, -27, 1055, -3780, -10290, 7420
53491, 28, -13, 1040, -6370, -8540, 4760
53511, 27, 7, 1017, -5460, -8190, 3290
53531, -12, -31, 990, -4270, -11830, 1470
53551, 15, -15, 999, -3150, -10080, 2240
53571, 38, -39, 1016, -2870, -6440, 3710
53591, 31, 21, 1014, -4130, -6160, 2870
53611, 84, -40, 1030, -1400, -5600, 1820
53631, 62, -48, 1033, 630, -6440, 1470
53651, 57, -43, 1050, -140, -6440, 630
53671, 65, -61, 1054, -3430, -6230, 1120
53691, 52, -16, 1038, -5180, -4340, 350
53711, 87, -51, 1042, -4270, -1820, 1680
53731, 63, -50, 1023, -3710, -1120, 1260
53751, 34, -56, 1016, -2940, -2240, -2940
53771, 65, -85, 1023, -2940, -2240, -2100
53791, 48, -91, 1028, -2870, -2800, -980
53811, 52, -70, 1021, -4130, -1540, -4200
53831, 72, -63, 1017, -4340, -700, -4830
53851, 53, -78, 1010, -2100, -700, -3430
53871, 53, -82, 1013, 280, 350, -4690
53891, 106, -75, 1041, 1540, 1890, -1400
53911, 87, -72, 1021, 1120, 2660, -1330
53931, 131, -154, 1007, 2800, -2170, -5460
53951, 83, -76, 1048, -210, -8190, -8330
53971, 72, -85, 1021, -2800, -2310, -10710
53991, 35, -21, 1032, -210, 4270, -8960
54011, 97, -61, 1041, 70, 7280, -5180
54031, 99, -75, 1040, 2940, 7000, 6930
54051, 76, -71, 1032, 3920, 5460, 10430
54071, 56, -29, 1029, 4410, 5460, 6860
54091, 92, -86, 1041, 3920, 6300, 4620
54111, 65, -72, 1041, 4060, 5530, 4830
54131, 31, -60, 1024, 2450, 2170, 1190
54151, 24, -67, 1020, 1890, -70, 3290
54171, 20, -71, 1026, 1260, -490, 4340
54191, 29, -41, 1023, 1260, -420, 3780
54211, 35, -80, 1020, 1260, -700, 2590
54231, 27, -61, 1025, 2170, 280, 1540
54251, 46, -78, 1035, 1190, 910, 0
54271, 33, -63, 1014, 1120, 910, 560
54291, 49, -92, 1017, 1330, 490, 1890
54311, 72, -62, 1003, 840, 1610, 3430
54331, 58, -92, 1002, 840, 770, 1750
54351, 53, -62, 1009, 1610, 840, 840
54371, 43, -50, 1013, 1680, 770, -700
54391, 37, -80, 1011, 3150, 350, -490
54411, 17, -64, 1004, 4900, 770, 70
54431, 59, -72, 1019, 5320, 1610, -210
54451, 64, -73, 1026, 5250, 2030, 1610
54471, 69, -95, 1040, 5530, 980, 140
54491, 81, -99, 1046, 5250, 700, 700
54511, 48, -91, 1027, 3990, 700, 0
54531, 39, -70, 1014, 3010, -1050, -70
54551, 68, -75, 1021, 1750, -2030, 1820
54571, 63, -79, 1019, 1330, -1190, 3990
54591, 56, -50, 1022, 2170, -560, 2870
54611, 56, -64, 1023, 2380, 70, 1190
54631, 47, -84, 1020, 2870, -140, 1890
54651, 53, -76, 1030, 3710, 700, 2590
54671, 66, -69, 1036, 2940, 1050, 2520
54691, 61, -83, 1036, 2310, 490, 2660
54711, 51, -78, 1032, 2450, -910, 2800
54731, 83, -88, 1045, 2100, -350, 2100
54751, 41, -72, 1031, 1540, 840, 2310
54771, 47, -61, 1023, 910, -350, 1050
54791, 59, -73, 1015, 70, -1120, 1330
54811, 32, -52, 1007, -70, -1120, 3010
54831, 41, -53, 1006, 350, -1680, 2730
54851, 25, -46, 1010, 1260, -280, 2310
54871, 40, -105, 1011, 3570, 1610, 2310
54891, 51, -37, 1016, 4200, 1050, 2940
54911, 55, -93, 1021, 3150, 840, 1610
54931, 50, -69, 1019, 4060, 70, 2030
54951, 56, -75, 1032, 3640, 420, 700
54971, 49, -72, 1023, 3990, 1260, 1190
54991, 57, -92, 1032, 3080, 70, 1610
55011, 50, -60, 1029, 3500, -630, 3570
55031, 40, -67, 1018, 1820, -700, 3220
55051, 48, -52, 1021, 1680, -1260, 2170
55071, 35, -75, 1023, 2660, -1330, 2240
55091, 20, -90, 1029, 3570, -1190, 1540
55111, 15, -39, 1027, 3780, -280, 840
55131, 27, -102, 1032, 3500, 770, 1400
55151, 11, -36, 1024, 3570, 770, 560
55171, 20, -92, 1033, 4760, 1260, 1890
55191, 29, -75, 1035, 4060, 1330, 420
55211, 50, -75, 1043, 3780, 2100, 1120
55231, 45, -85, 1036, 2450, 2100, 700
55251, 50, -57, 1038, 1820, 2170, 210
55271, 45, -81, 1034, 1750, 2170, 420
55291, 65, -84, 1035, 1400, 2380, 560
55311, 83, -71, 1032, 0, 2380, 3290
55331, 44, -51, 1012, -910, 0, 2100
55351, 49, -33, 1004, -210, -280, 2380
55371, 13, -57, 994, 2170, -910, 2590
55391, 12, -44, 994, 2590, -770, 1120
55411, 31, -67, 1005, 3850, 980, 1470
55431, 12, -42, 1002, 5180, 630, 1190
55451, 12, -97, 1003, 6510, -280, 630
55471, 36, -59, 1017, 6860, 1190, 1120
55491, 13, -109, 1020, 5810, 1120, -560
55511, 19, -66, 1019, 5320, 350, -1610
55531, 61, -87, 1031, 3710, 1190, -1330
55551, 55, -58, 1035, 2170, 1470, -1330
55571, 68, -53, 1034, 1680, 280, -2170
55591, 66, -73, 1035, 1960, -140, -910
55611, 35, -83, 1029, 2100, -980, -1050
55631, 50, -31, 1026, 770, -490, -1890
55651, 54, -81, 1018, 210, 70, -1960
55671, 43, -31, 1018, 2940, 140, -980
55691, 55, -89, 1025, 3080, 560, -1890
55711, 36, -53, 1027, 4200, 420, 700
55731, 61, -115, 1034, 4480, 1260, 2100
55751, 62, -66, 1049, 4270, 2240, 3500
55771, 67, -93, 1039, 1610, 770, 3500
55791, 54, -56, 1025, 1610, 420, 3220
55811, 48, -81, 1012, 1540, 1890, 2800
55831, 20, -43, 1011, 2450, 2450, 2730
55851, 28, -85, 1020, 2800, 2450, 3500
55871, 36, -82, 1016, 3920, 2240, 6720
55891, 21, -36, 1009, 3640, 560, 6090
55911, 31, -66, 1007, 3150, 980, 4130
55931, 20, -42, 1004, 5390, 2380, 4690
55951, 33, -82, 1013, 6230, 1820, 4550
55971, 27, -46, 1019, 6020, 1120, 4480
55991, 38, -49, 1032, 4270, 210, 3780
56011, 10, -35, 1026, 4060, 0, 5110
56031, 17, -42, 1031, 4970, 770, 4270
56051, 33, -63, 1024, 5250, 1750, 6090
56071, -5, -57, 1002, 5250, -560, 5670
56091, -20, -36, 1005, 4550, -2800, 2730
56111, 18, -44, 1002, 4900, -1750, 2450
56131, 35, -35, 1003, 6510, -280, 3780
56151, 22, -46, 1013, 7770, -70, 2520
56171, 22, -68, 1025, 8330, -1260, 980
56191, 39, -19, 1040, 7490, -1260, 1540
56211, 54, -35, 1047, 6160, -350, 1680
56231, 1, -8, 1049, 7980, -910, 2240
56251, 13, -69, 1078, 9450, -2030, 70
56271, 12, -90, 1104, 9450, -980, 1680
56291, 27, -57, 1134, 6370, 490, 910
56311, 48, -73, 1143, 2800, 1890, 1610
56331, 44, -23, 1132, 1120, 1540, 3640
56351, 64, -34, 1145, -1050, 1400, 3780
56371, 21, -48, 1164, -1610, 3640, 3150
56391, 17, -20, 1162, -3290, 3570, 1050
56411, 29, -8, 1156, -5320, 5250, 700
56431, -1, -64, 1157, -4760, 6790, 1820
56451, -18, -41, 1165, -4060, 7000, 2170
56471, 14, -22, 1190, -7140, 9030, 1330
56491, 34, -5, 1202, -11480, 13370, 1330
56511, 42, -67, 1203, -13300, 15120, 420
56531, 36, -110, 1173, -13020, 13510, 2100
56551, -11, -174, 1110, -15960, 10430, 3010
56571, -28, -136, 1060, -22190, 8960, 1260
56591, -30, -64, 1014, -31360, 11830, -350
56611, -53, -109, 986, -34930, 17290, -1260
56631, 4, -154, 990, -29540, 22680, 3220
56651, 19, -172, 993, -25830, 27930, 8400
56671, 13, -142, 975, -25550, 29050, 8960
56691, -50, -126, 945, -25340, 27300, 7560
56711, -44, -178, 954, -21700, 26040, 5600
56731, -49, -184, 950, -17500, 28910, 9030
56751, -49, -182, 936, -16380, 31220, 10850
56771, -115, -134, 882, -17150, 30800, 10640
56791, -108, -110, 873, -17710, 27160, 6860
56811, -133, -109, 861, -16100, 26670, 4550
56831, -169, -121, 871, -11970, 27370, 3920
56851, -126, -192, 901, -5810, 27440, 1750
56871, -172, -192, 894, -840, 32620, 5250
56891, -133, -167, 867, -980, 35000, 8190
56911, -64, -196, 852, -3710, 26250, 8260
56931, -121, -229, 825, -1680, 22260, 13790
56951, -147, -247, 814, 1400, 18410, 12670
56971, -170, -244, 783, 1260, 11060, 11200
56991, -153, -179, 778, -6930, -7140, 9030
57011, -156, -120, 755, -5390, -5040, 13440
57031, -177, -146, 740, 420, -9870, 13720
57051, -222, -183, 754, 5530, -15330, 10780
57071, -243, -97, 770, 6230, -18760, 7700
57091, -175, -153, 825, 9870, -19670, 8540
57111, -192, -187, 867, 14700, -20160, 6790
57131, -142, -227, 903, 15960, -18760, 5600
57151, -151, -179, 922, 14490, -18900, 2450
57171, -178, -157, 897, 11480, -17780, -2940
57191, -116, -148, 872, 9730, -23310, -4130
57211, -173, -75, 898, 8750, -24850, -5740
57231, -171, -52, 883, 13860, -25270, -6020
57251, -116, -179, 922, 21980, -34230, -1680
57271, -101, -159, 957, 23170, -35070, 3010
57291, -69, -151, 956, 20300, -32410, -2380
57311, -94, -60, 957, 20230, -28490, -7980
57331, -23, -157, 1002, 24710, -26600, -6440
57351, -4, -272, 1016, 27930, -28700, -5110
57371, -72, -211, 1022, 22680, -31780, -8680
57391, -62, -61, 977, 12110, -32550, -12740
57411, 113, -133, 987, 11550, -27160, -5670
57431, 221, -216, 1004, 15960, -27650, 140
57451, -94, -86, 922, 17640, -51240, -14630
57471, -69, 70, 977, 15120, -65450, -30800
57491, 132, -26, 1047, 17290, -51450, -13230
57511, 128, -112, 1093, 28140, -45710, -2590
57531, 76, -130, 1092, 29890, -52010, -8960
57551, 53, -96, 1099, 23240, -52290, -17080
57571, 99, -83, 1095, 14700, -42980, -20860
57591, 104, -27, 1058, 11620, -32760, -17570
57611, 116, -120, 1033, 11480, -28350, -16520
57631, 122, 0, 1025, 8820, -23450, -14980
57651, 139, 9, 1020, 6160, -14700, -18340
57671, 112, -47, 1008, 11760, -6720, -17570
57691, 130, 12, 1037, 13860, 1610, -17220
57711, 220, -40, 1100, 15050, 11970, -13720
57731, 283, 8, 1168, 17710, 17150, -7630
57751, 237, -1, 1188, 19390, 10710, -10780
57771, 154, 23, 1224, 22890, -490, -17430
57791, 144, -36, 1280, 23450, -350, -16870
57811, 215, -36, 1349, 21070, 10430, -6790
57831, 338, -4, 1405, 16450, 17780, 210
57851, 208, -15, 1374, 14560, 9870, -700
57871, 92, -20, 1325, 16870, -1260, -10150
57891, 107, -14, 1332, 16030, 840, -7350
57911, 113, -6, 1329, 11410, 11970, -2030
57931, 133, 13, 1326, 8330, 19460, 2660
57951, 127, 41, 1256, 5460, 15750, 8260
57971, 121, 44, 1246, 5040, 14210, 6230
57991, 106, 5, 1210, 4340, 15820, 4130
58011, 139, 16, 1183, 3360, 16310, 5460
58031, 163, 35, 1196, -1610, 19670, 9590
58051, 160, 28, 1172, -4970, 23310, 10080
58071, 143, 30, 1160, -5320, 20160, 11060
58091, 141, -25, 1150, -6650, 17290, 11830
58111, 149, -35, 1130, -10150, 15050, 11900
58131, 100, 23, 1078, -16800, 12040, 11060
58151, 64, -36, 1038, -21490, 9030, 10080
58171, 60, -92, 1026, -21630, 8610, 15540
58191, 10, -54, 1003, -25480, 8330, 17920
58211, -12, -36, 1005, -32410, 9310, 13230
58231, 68, 36, 936, -36470, 10640, 11060
58251, 39, -32, 976, -35560, 10430, 10920
58271, 28, -65, 986, -29680, 13580, 11480
58291, 21, -57, 982, -28630, 18690, 9100
58311, 34, -75, 990, -28700, 21980, 9240
58331, 65, -116, 997, -27650, 24010, 9940
58351, 80, -11, 1000, -26810, 26460, 8120
58371, 90, -128, 975, -26110, 25830, 4410
58391, -95, -207, 926, -17640, 19460, 910
58411, -106, -127, 916, -17010, 14070, -3920
58431, -60, -116, 941, -25760, 18480, 1190
58451, 17, -87, 996, -26530, 28770, 9380
58471, 9, -208, 972, -22260, 33740, 15190
58491, -94, -312, 943, -13930, 27720, 14910
58511, -110, -245, 954, -12250, 21280, 11830
58531, -94, -143, 971, -23170, 24570, 7560
58551, -78, -161, 953, -27580, 30800, 8400
58571, -39, -240, 952, -21140, 31360, 10010
58591, -116, -217, 936, -14350, 27370, 14910
58611, -144, -228, 914, -13860, 22050, 9730
58631, -111, -241, 902, -15400, 22470, 6090
58651, -99, -327, 905, -15680, 25060, 10780
58671, -109, -196, 892, -16450, 24220, 12180
58691, -122, -223, 844, -21630, 23870, 7910
58711, -150, -210, 776, -20720, 21490, 5880
58731, -155, -150, 721, -18690, 14350, 10430
58751, -178, -255, 682, -15190, 11550, 13650
58771, -187, -254, 666, -8400, 8960, 14980
58791, -215, -230, 632, -5320, 4830, 12460
58811, -230, -76, 591, -5250, 140, 10290
58831, -208, -115, 600, 6370, -7000, 6440
58851, -157, -234, 672, 18690, -12040, 7910
58871, -180, -273, 726, 23240, -20510, 5600
58891, -213, -199, 755, 20930, -26040, -1400
58911, -182, -149, 777, 21210, -25060, -6440
58931, -81, -258, 864, 27230, -25270, -3010
58951, -6, -335, 920, 26180, -32410, -630
58971, -102, -292, 840, 23800, -45920, -1750
58991, -227, -153, 783, 11620, -55440, -11900
59011, -99, -88, 858, 7630, -42420, -3920
59031, 0, -231, 931, 11900, -43190, 490
59051, -38, -200, 937, 14980, -53970, -2450
59071, -79, -131, 948, 14840, -61040, -10360
59091, -57, -140, 955, 19110, -57050, -13370
59111, 9, -159, 953, 24710, -49210, -12880
59131, 87, -124, 1012, 25900, -49140, -12670
59151, 189, -170, 1083, 26040, -59430, -16170
59171, 160, -193, 1069, 25410, -70420, -16450
59191, 94, -200, 1015, 27300, -74410, -27860
59211, 33, -114, 996, 25690, -68040, -36050
59231, 138, -143, 1038, 22890, -53410, -34790
59251, 322, -186, 1073, 18830, -40880, -28280
59271, 192, -170, 973, 15750, -40600, -26880
59291, 107, -64, 941, 13930, -46270, -36050
59311, 160, 32, 935, 11340, -31220, -38570
59331, 238, -51, 991, 21560, -10360, -27860
59351, 227, -137, 1043, 29960, -5250, -23450
59371, 243, -105, 1082, 30450, -2380, -23310
59391, 108, 18, 1092, 25410, 6090, -24080
59411, 98, -13, 1111, 27860, 22050, -23730
59431, 369, -108, 1225, 32060, 39550, -11550
59451, 429, -74, 1286, 30590, 41370, 140
59471, 268, 28, 1252, 24780, 21560, -12180
59491, 89, -55, 1187, 27510, 7980, -19950
59511, 51, -6, 1195, 30590, 17150, -16380
59531, 298, 47, 1320, 27090, 36820, -5320
59551, 347, 9, 1382, 23170, 38710, 3780
59571, 147, 50, 1343, 24500, 19180, -1470
59591, 108, 28, 1336, 24570, 6650, -9100
59611, 165, 13, 1377, 21420, 15190, -2030
59631, 231, -42, 1424, 16030, 24010, 6090
59651, 135, 2, 1385, 9590, 20160, 8820
59671, 103, 42, 1335, 3360, 12600, 4130
59691, 101, 76, 1279, -280, 16380, 4900
59711, 166, 21, 1265, -1470, 23800, 8470
59731, 128, 3, 1214, -910, 25760, 13440
59751, 64, -4, 1175, -4060, 20020, 11900
59771, 62, 59, 1170, -9520, 20090, 11900
59791, 132, -26, 1189, -12110, 27650, 14840
59811, 165, -45, 1195, -11480, 31990, 17710
59831, 101, -15, 1160, -14210, 26390, 14910
59851, 59, -14, 1138, -18340, 17220, 8260
59871, 74, -34, 1143, -21700, 14630, 8330
59891, 74, -70, 1132, -24640, 13440, 10220
59911, 38, -58, 1099, -27230, 8890, 8050
59931, -35, -51, 1020, -31500, 5810, 4830
59951, -14, -32, 981, -36680, 8890, 4270
59971, 14, -13, 941, -40530, 19530, 8470
59991, 85, -52, 950, -40040, 27930, 11690
60011, 53, -83, 936, -37380, 30240, 10430
60031, -83, -37, 875, -34160, 24850, 5600
60051, -84, -152, 870, -31780, 19460, 3010
60071, -80, -128, 880, -27860, 27650, 7840
60091, -39, -92, 907, -27650, 37520, 8190
60111, 0, -132, 920, -28490, 41020, 7560
60131, -12, -155, 925, -24360, 37870, 8470
60151, -76, -139, 908, -20300, 34090, 6860
60171, -94, -182, 904, -18550, 32760, 5390
60191, -84, -170, 906, -17710, 31640, 11550
60211, -109, -163, 899, -19040, 31360, 13860
60231, -105, -186, 912, -18200, 32340, 9170
60251, -156, -171, 883, -15610, 29820, 9800
60271, -137, -216, 857, -13860, 23800, 11690
60291, -173, -224, 821, -13300, 19950, 14980
60311, -216, -220, 791, -13020, 18620, 12320
60331, -159, -218, 780, -13650, 22890, 10850
60351, -163, -186, 733, -14350, 27790, 11480
60371, -203, -202, 689, -12040, 24640, 11410
60391, -184, -245, 672, -7350, 13370, 8470
60411, -182, -236, 644, -4410, 6090, 10430
60431, -175, -173, 626, -3640, -70, 6160
60451, -167, -179, 669, -2660, -6720, 2240
60471, -182, -242, 710, 2100, -11690, 560
60491, -182, -179, 739, 8260, -16590, 4060
60511, -156, -168, 783, 9590, -19740, 2100
60531, -163, -221, 808, 12810, -21420, 3990
60551, -208, -147, 818, 17360, -25620, 2380
60571, -137, -230, 863, 21070, -27230, 770
60591, -84, -272, 937, 24570, -26670, 2590
60611, -105, -285, 955, 24920, -25900, 5110
60631, -144, -216, 949, 20510, -30590, 980
60651, -82, -125, 919, 16590, -34020, -3990
60671, 4, -173, 928, 14700, -31990, 2100
60691, -63, -283, 934, 24920, -34650, 2030
60711, -116, -38, 882, 23030, -46480, -8470
60731, -64, -105, 940, 23450, -38640, -5530
60751, 0, -167, 990, 29330, -31570, -1540
60771, -10, -177, 995, 31570, -36260, 1470
60791, -101, -103, 984, 29610, -42000, -4410
60811, -107, 13, 994, 27090, -36400, -6790
60831, 48, -83, 1038, 29260, -22680, 140
60851, 6, -88, 1014, 33670, -23730, 1680
60871, -82, -67, 1012, 35350, -29470, -7070
60891, -81, -152, 1043, 31500, -20930, -7910
60911, -67, -8, 1043, 23030, 280, -3710
60931, 130, -123, 1049, 20790, 20580, 1330
60951, 61, -41, 1008, 22960, 21140, 5320
60971, -109, 78, 991, 21350, 7280, -10990
60991, -80, -13, 1082, 24010, 7630, -7630
61011, 82, -7, 1170, 24500, 24920, 12250
61031, 236, -112, 1237, 24500, 29750, 23660
61051, 105, -73, 1223, 21840, 9800, 16030
61071, -61, -26, 1133, 16590, -14210, -700
61091, -29, 29, 1126, 13300, -14560, -3500
61111, 143, -57, 1157, 13090, -7000, 8610
61131, 99, -24, 1143, 11130, -12110, 11970
61151, 7, 72, 1128, 8680, -24920, 2310
61171, -4, 54, 1128, 7490, -19390, -140
61191, 4, 11, 1142, 14350, -8190, 5110
61211, -16, -40, 1160, 16310, -2870, 14140
61231, -44, 4, 1191, 12600, -980, 18830
61251, 46, 31, 1248, 8400, 9030, 24640
61271, 155, -41, 1315, 10430, 18130, 35210
61291, 41, -51, 1316, 11200, 10220, 28350
61311, -39, -43, 1326, 10010, 70, 13860
61331, -39, 19, 1330, 3150, -210, 10150
61351, 11, 1, 1347, -980, 2590, 14490
61371, 23, -9, 1342, -3360, 3990, 17220
61391, 0, -24, 1324, -5390, 2870, 15330
61411, -6, -16, 1295, -11130, 350, 10360
61431, 5, 22, 1258, -17780, 2380, 7560
61451, 5, 71, 1214, -20720, 5250, 8610
61471, 41, -6, 1176, -18690, 6160, 10360
61491, 89, -4, 1135, -15330, 5110, 14840
61511, 48, 36, 1093, -17710, -1050, 13790
61531, 26, -22, 1086, -15610, -2310, 5040
61551, 21, -32, 1071, -12600, -1470, 5040
61571, -23, -72, 1053, -12670, -4480, 6160
61591, -36, -16, 1014, -15610, -9100, 2870
61611, -13, -24, 1004, -17430, -9800, -1610
61631, -5, -59, 1020, -13720, -2730, -490
61651, -54, -93, 991, -10780, 210, 490
61671, -30, -151, 1002, -9870, -3430, 3850
61691, -30, -89, 987, -14070, 7700, 11270
61711, 29, -9, 986, -17780, 16660, 10920
61731, -79, -28, 919, -13860, 11410, 5880
61751, -28, -166, 960, -2310, 10080, 3990
61771, -23, -232, 991, -980, -1470, -1610
61791, 43, -110, 995, -5950, 7910, 7840
61811, 63, -97, 978, -11830, 24990, 12950
61831, -8, -174, 959, -7490, 27860, 17570
61851, -94, -98, 873, -4130, 24430, 14840
61871, -34, -150, 941, -8610, 9310, -70
61891, 7, -113, 979, -17570, -12040, -6860
61911, 20, -65, 960, -16520, 6370, -5600
61931, -58, -112, 913, -5810, 32410, -5670
61951, -119, -197, 912, 4690, 34230, -1820
61971, -132, -127, 933, 7070, 35980, 5600
61991, -98, -131, 955, 3150, 39550, 2800
62011, -59, -56, 958, 980, 39830, 2870
62031, -50, -169, 936, 3500, 41440, 5740
62051, -136, -172, 924, 10640, 38990, 10640
62071, -127, -211, 899, 8330, 30940, 9450
62091, -119, -74, 866, 2450, 25130, 12180
62111, -69, -107, 846, -2450, 27510, 15680
62131, -153, -127, 793, 490, 30450, 15260
62151, -198, -132, 740, 2800, 20650, 9940
62171, -207, -60, 717, 1260, 8820, 9310
62191, -153, -79, 714, -2100, 7280, 11620
62211, -148, -105, 695, -1120, 5040, 14980
62231, -191, -134, 678, 4270, -2030, 18060
62251, -235, -13, 680, 5040, -8260, 14560
62271, -270, -28, 688, 4130, -11270, 6720
62291, -133, -224, 740, 10150, -12320, 4410
62311, -42, -126, 735, 16660, -12880, 13090
62331, -247, -11, 701, 12040, -20720, 16940
62351, -253, 59, 755, 9870, -41020, 5180
62371, -155, -45, 865, 15260, -47740, 1820
62391, -56, -129, 965, 27860, -33740, 13020
62411, 10, -41, 1007, 32760, -21840, 17500
62431, -29, -30, 1021, 30730, -21350, 14840
62451, -117, -10, 1024, 30450, -30450, 3570
62471, -173, 30, 1001, 31640, -37520, -6440
62491, -233, 15, 1005, 31570, -33600, -8050
62511, -264, 14, 1023, 33530, 6160, 6090
62531, -185, -34, 1077, 33530, 26740, 14420
62551, -246, -8, 1080, 30730, 39690, 17640
62571, -201, 55, 1091, 27090, 54460, 17220
62591, 170, -76, 1162, 21630, 72170, 31920
62611, 158, -39, 1161, 15540, 61180, 30170
62631, -150, 57, 1099, 8120, 14700, 6580
62651, -375, 118, 1047, 6300, -7070, -5530
62671, -381, 67, 1039, 8190, 10570, 8540
62691, 147, -53, 1133, 9240, 35770, 30730
62711, 134, -1, 1109, 4130, 18270, 29750
62731, -150, 12, 1046, 1190, -29470, -2870
62751, -442, 113, 947, 210, -50890, -19040
62771, -431, 52, 956, 3010, -29260, -12040
62791, -242, -28, 1027, 3920, 11340, 13160
62811, 45, -10, 1106, 420, 32060, 30310
62831, 122, -64, 1128, -2380, 19390, 25410
62851, -58, 3, 1092, -3430, -13300, -2240
62871, -192, -7, 1067, -7000, -34160, -17710
62891, -249, 111, 1071, -8610, -31500, -13020
62911, -168, 35, 1127, -6720, -18970, -3150
62931, -82, 44, 1176, -2100, -8750, 7910
62951, -37, 9, 1231, 840, -7770, 8260
62971, -130, 58, 1239, 700, -18130, -2870
62991, -251, 48, 1255, 3990, -25340, -15750
63011, -256, 83, 1300, 6790, -19250, -11550
63031, -196, 18, 1350, 8470, -7840, 840
63051, -136, -1, 1380, 9800, 840, 9030
63071, -185, 43, 1370, 5180, 2030, 4900
63091, -192, 67, 1370, 3780, 1960, -630
63111, -247, 46, 1344, 3430, 3220, -4130
63131, -226, 43, 1329, 4970, 7000, -5040
63151, -189, 53, 1293, 3220, 13650, -4550
63171, -158, 12, 1246, 3990, 18690, -5530
63191, -97, 31, 1229, 1680, 21770, -7770
63211, -132, 37, 1186, -2870, 21280, -11130
63231, -175, 78, 1145, -5530, 19530, -12110
63251, -193, 35, 1119, -5880, 20370, -8190
63271, -125, 2, 1100, -5670, 27580, -5320
63291, -102, -9, 1069, -7140, 31780, -3290
63311, -85, -16, 1037, -9100, 28140, -3360
63331, -105, 30, 1024, -12740, 23660, -3920
63351, -114, -8, 1010, -13510, 21140, -6510
63371, -101, -55, 1007, -11550, 23730, -6300
63391, -98, -116, 1036, -11130, 30380, -3080
63411, -7, -204, 1006, -13790, 34160, 5390
63431, -115, -43, 950, -24430, 25830, 8890
63451, -307, -32, 884, -34650, 16520, 700
63471, -357, -15, 845, -33740, 15120, 70
63491, -282, -27, 866, -33250, 19180, 8330
63511, -237, -56, 870, -31080, 25130, 18200
63531, -278, -49, 855, -27930, 23660, 18130
63551, -460, -8, 839, -24640, 20300, 8890
63571, -531, -15, 852, -20230, 21210, -3360
63591, -394, -47, 849, -13160, 39760, -4900
63611, -228, -36, 907, -7070, 63490, -420
63631, -86, -263, 959, -3640, 69020, -1890
63651, -250, -134, 1015, 70, 52430, 2380
63671, -418, -106, 818, -11060, 16520, -10850
63691, -530, -89, 784, -18620, -4830, -21770
63711, -462, -115, 783, -18830, 3150, -12600
63731, -332, -159, 828, -15960, 11760, 700
63751, -252, -170, 848, -11480, 21280, 6440
63771, -258, -204, 831, -6510, 23940, -70
63791, -330, -232, 812, -4340, 11340, -3710
63811, -390, -139, 794, -6090, 420, -9520
63831, -364, -110, 757, -8400, 70, -13440
63851, -248, -236, 742, -2660, 8680, -7770
63871, -264, -173, 710, 3080, 10710, 5390
63891, -302, -132, 666, -1750, 560, 4060
63911, -371, -82, 669, -3710, -9660, 700
63931, -378, -131, 657, -1400, -14280, 2100
63951, -318, -141, 675, 4410, -13650, 2800
63971, -270, -116, 684, 7140, -14980, 8890
63991, -310, -55, 677, 5740, -21700, 9100
64011, -350, -109, 692, 8050, -33320, 5320
64031, -396, -20, 721, 13860, -40460, 770
64051, -327, -183, 794, 17290, -37450, -3220
64071, -301, -83, 815, 23730, -27790, 1820
64091, -279, -79, 791, 20230, -26530, 4270
64111, -261, -127, 855, 22820, -19250, 6790
64131, -281, -41, 854, 22330, -26810, -2170
64151, -240, -48, 939, 23030, -21070, -6300
64171, -173, -153, 974, 26250, -27020, -4970
64191, -198, -167, 956, 31290, -40320, 1400
64211, -228, -53, 947, 27300, -50400, 1890
64231, -219, -92, 954, 19810, -54810, -3710
64251, -247, -90, 980, 19530, -50680, -9240
64271, -164, -140, 1002, 20790, -42000, -7980
64291, -105, -61, 1037, 20090, -32410, 1050
64311, -130, -33, 1067, 16730, -30310, 5530
64331, -186, -4, 1091, 15050, -35000, -4620
64351, -190, -95, 1115, 17920, -36610, -7350
64371, -211, -121, 1106, 21770, -38500, -3500
64391, -177, -64, 1119, 13650, -31920, -770
64411, -90, -91, 1099, 7210, -20720, 1190
64431, -78, -107, 1066, 5950, -17990, -1050
64451, -94, 69, 1004, 6090, -20230, -2590
64471, -186, -37, 1039, 10360, -32970, -15190
64491, -171, -112, 1110, 12810, -29680, -14350
64511, -30, -96, 1142, 7490, -21000, -13720
64531, 43, 10, 1111, 3080, -17360, -11760
64551, 109, -105, 1082, 7140, -19950, -5810
64571, 34, -35, 1099, 10500, -25270, -10080
64591, -76, -40, 1087, 10500, -26180, -15470
64611, -62, -16, 1105, 12740, -20510, -8890
64631, 7, 4, 1095, 11620, -9660, -2660
64651, 9, 46, 1079, 15750, -3780, 2730
64671, -20, 3, 1103, 21560, -9170, 3010
64691, -51, -45, 1165, 26110, -10850, 1750
64711, -83, 45, 1219, 21420, -8400, 1330
64731, -53, 48, 1244, 18830, -3360, 3570
64751, -38, 33, 1271, 22470, 2590, 6580
64771, -23, -28, 1307, 22330, 4340, 11970
64791, -60, 43, 1310, 18620, 1610, 9800
64811, -91, 22, 1299, 14840, -630, 3850
64831, -93, 64, 1267, 12950, 4690, 3570
64851, -66, 74, 1257, 10710, 12250, 8260
64871, -38, 106, 1225, 9940, 18060, 10780
64891, -33, 23, 1210, 12390, 20440, 10150
64911, -124, 119, 1183, 11270, 20090, 6790
64931, -106, 77, 1154, 7630, 19390, 3500
64951, -57, 84, 1133, 7700, 24220, 8960
64971, -20, 80, 1151, 7210, 30590, 10500
64991, -19, 40, 1146, 6090, 27580, 10290
65011, -48, -52, 1144, 5320, 18620, 9870
65031, -121, 7, 1116, -2520, 11550, 2590
