T [ms],AccX [mg],AccY [mg],AccZ [mg],GyroX [mdps],GyroY [mdps],GyroZ [mdps]
3961, 26, 59, 1018, 2660, 70, 1890
3981, 25, 56, 1017, 2800, 0, 2170
4001, 23, 58, 1019, 2520, -70, 2170
4021, -38, 58, 1050, 3010, 5040, 6650
4041, 3, 64, 1020, 3920, 4550, 10080
4061, 30, 68, 1015, 3010, 350, 8120
4081, -12, 49, 1055, 2940, 210, 5740
4101, 22, 63, 1035, 5530, 560, 5670
4121, 25, 91, 1013, 17290, 1260, 1820
4141, 32, 100, 999, 24500, 840, -1540
4161, 53, 71, 1019, 20790, -70, -5950
4181, 14, 88, 1024, 15400, -560, -10360
4201, -29, 60, 1031, 14770, 10780, -4130
4221, 22, 82, 1032, 15540, 8470, -7490
4241, 39, 93, 1026, 21560, -3920, -14770
4261, 30, 97, 1037, 27230, 3150, -10990
4281, -23, 142, 1019, 33810, 11410, -490
4301, -14, 175, 1006, 42840, 21490, 8050
4321, -23, 177, 1027, 55160, 8190, 7070
4341, 11, 207, 997, 65100, -140, 5670
4361, 0, 223, 994, 75600, 3080, -2240
4381, 16, 225, 991, 78960, 2240, -3780
4401, 36, 288, 981, 80360, 3290, -1330
4421, 28, 321, 970, 83160, -350, 1400
4441, -1, 347, 956, 82040, 4760, 15680
4461, -44, 389, 939, 84560, 16940, 29050
4481, -47, 452, 977, 98560, 6720, 42000
4501, -10, 484, 886, 112140, -3990, 41580
4521, -6, 494, 884, 128520, -1330, 35420
4541, 28, 510, 837, 131110, 14980, 24570
4561, 36, 546, 879, 126700, 420, 15680
4581, 61, 631, 848, 109760, -9730, 20510
4601, 10, 705, 851, 85680, -3150, 26670
4621, -18, 734, 796, 94710, 12600, 40950
4641, -18, 776, 835, 130200, 13720, 52780
4661, 8, 772, 885, 150500, -3430, 47670
4681, 52, 849, 894, 135870, -20160, 24290
4701, -1, 806, 905, 90440, -21630, 9170
4721, -60, 760, 789, 38990, 1680, 12110
4741, -64, 644, 659, -28350, 3570, 8540
4761, 0, 609, 594, -76230, -2240, -19600
4781, 107, 610, 523, -91560, -9240, -52360
4801, 212, 754, 588, -72660, -25270, -64330
4821, 182, 735, 678, 23380, -45780, -43190
4841, 53, 776, 772, 141610, -56420, 32410
4861, -57, 732, 752, 167370, -30940, 79030
4881, -50, 806, 667, 117320, -20370, 79660
4901, 72, 885, 658, 46760, -18760, 41930
4921, 199, 813, 666, 15260, -17220, -19670
4941, 245, 747, 620, 17640, -54180, -53200
4961, 156, 708, 538, 15540, -59990, -39900
4981, 114, 743, 420, -15260, -25060, -7980
5001, 152, 815, 501, -26320, -560, 12740
5021, 219, 788, 567, 40810, 1050, 2240
5041, 175, 806, 619, 124390, -31990, 5040
5061, 75, 798, 500, 131320, -20370, 24780
5081, 64, 967, 468, 70630, 11900, 39900
5101, 147, 914, 511, 32550, 39340, 19460
5121, 220, 889, 533, 105910, -29820, -23660
5141, 176, 858, 533, 75670, 2100, -18060
5161, 160, 852, 389, 9310, 31010, -14910
5181, 159, 899, 331, -24640, 35560, -14140
5201, 198, 996, 359, 35980, 34860, -3990
5221, 122, 910, 439, 138110, 11200, 32480
5241, -40, 960, 468, 148190, 53270, 65520
5261, -128, 950, 412, 80360, 68530, 47600
5281, -19, 961, 345, 19110, 37030, -33740
5301, 224, 1041, 368, 8050, -21070, -116900
5321, 347, 1012, 400, 55160, -35980, -122990
5341, 208, 944, 344, 44450, -2450, -41090
5361, -22, 893, 269, -1890, 70420, 32970
5381, -58, 921, 221, -32200, 76860, 31290
5401, 94, 970, 264, 12600, 24780, -18760
5421, 179, 978, 359, 97510, -34580, -38010
5441, 54, 963, 355, 100800, -17780, 4690
5461, -78, 965, 250, 28910, 31010, 45710
5481, -78, 980, 224, -21140, 31990, 26670
5501, 54, 968, 225, -6720, -7210, -25690
5521, 169, 1006, 230, 23590, -37940, -47880
5541, 128, 987, 220, 30170, -24010, -16240
5561, 18, 973, 190, 11760, 20020, 26040
5581, -10, 998, 205, 3850, 26040, 32550
5601, 53, 975, 226, 37240, 3990, 5180
5621, 69, 993, 248, 43540, -25620, -14000
5641, 62, 989, 198, 20230, -10010, -12600
5661, 31, 994, 178, 5950, -11340, -2380
5681, 13, 966, 177, 10710, 3080, 5040
5701, 44, 976, 226, 20790, 3570, -980
5721, 60, 937, 177, 12810, -3640, -14070
5741, 111, 953, 166, -18270, -5950, -22680
5761, 167, 962, 149, -10430, -22610, -26600
5781, 108, 987, 157, 13510, -20440, 840
5801, -7, 980, 148, 29190, 2590, 42630
5821, -56, 966, 203, 33040, 13790, 57260
5841, 67, 940, 185, 28000, -1820, 26810
5861, 160, 981, 250, 14980, -29960, -15820
5881, 212, 1054, 66, 2800, -33110, -24150
5901, -36, 979, 176, -18270, -19670, 36260
5921, -97, 959, 126, -5950, 51800, 77840
5941, -45, 991, 94, -5180, -1750, 51380
5961, 45, 985, 147, -840, -20860, 12110
5981, 145, 987, 148, 21490, -50750, -15960
6001, 79, 983, 195, 38360, -42770, -3430
6021, -19, 1016, 200, 26880, -4410, 27580
6041, 37, 951, 158, 5670, 9940, 24290
6061, 170, 963, 124, -25270, -41370, -25270
6081, 267, 949, 107, -48720, -62650, -66920
6101, 310, 1013, 146, -39130, -45430, -63770
6121, 275, 982, 145, -6580, -15960, -21000
6141, 168, 963, 152, 20160, -8330, 35770
6161, 68, 964, 174, 22750, 16520, 71330
6181, 68, 977, 196, 18900, 27580, 75530
6201, 129, 1011, 240, 23380, 10850, 50470
6221, 179, 978, 206, 16800, -13020, 22820
6241, 207, 1011, 177, -21140, -10220, 15120
6261, 222, 947, 129, -64610, 10010, 8960
6281, 238, 927, 95, -68950, -2100, 15330
6301, 167, 970, 166, -27440, -5250, 37240
6321, 90, 951, 158, 18760, 22960, 66290
6341, 71, 944, 234, 24990, 25130, 84700
6361, 241, 972, 262, 23310, 4130, 46130
6381, 398, 995, 221, 13720, -54250, -20090
6401, 380, 969, 207, 1470, -87290, -33110
6421, 199, 945, 182, -14840, -33740, 30380
6441, 123, 918, 184, -38010, 30800, 97230
6461, 317, 959, 195, -49210, 14980, 75950
6481, 496, 927, 152, -43540, -71120, -8120
6501, 495, 886, -11, -37520, -143360, -45290
6521, 148, 952, 100, -26040, -94010, 59430
6541, -72, 936, 150, 38500, 65590, 205100
6561, -179, 929, 283, 96810, 109200, 247590
6581, -2, 932, 267, 113890, 52780, 156940
6601, 177, 959, 257, 72590, -50330, 15260
6621, 298, 998, 216, -3710, -85330, -80990
6641, 348, 1003, 217, -48860, -75110, -102620
6661, 344, 958, 151, -47530, -52640, -87640
6681, 320, 952, 69, -65870, -40740, -66850
6701, 257, 934, 28, -82180, -30240, -53900
6721, 121, 971, 147, -42210, -15610, -39200
6741, 62, 1023, 170, 43890, 5810, -19180
6761, -77, 1086, 263, 109620, 16450, -13930
6781, -125, 1152, 201, 107800, 34510, -31710
6801, -98, 1248, 336, 62510, 50750, -82250
6821, 229, 1346, 417, 21630, 45010, -170240
6841, 610, 1342, 182, -29470, -31920, -342300
6861, 700, 914, -117, -172830, -184520, -478800
6881, 324, 976, -267, -264390, -166810, -383740
6901, -320, 1161, 135, -152600, 80220, -14980
6921, -603, 874, 334, 48720, 411740, 283640
6941, -179, 974, 117, 106050, -80430, -59850
6961, 70, 1030, -7, 58730, -167510, -218680
6981, -341, 1134, 161, 69440, 22400, -79800
7001, -516, 1103, 418, 137760, 169120, -10920
7021, -76, 1191, 368, 90090, -66430, -203770
7041, 319, 1125, 232, -44100, -254100, -381220
7061, 497, 937, 85, -158970, -230300, -338870
7081, 363, 905, 20, -164990, -56490, -123340
7101, 72, 953, -5, -89040, 77350, 112420
7121, -180, 959, 47, 7070, 131530, 251580
7141, -297, 965, 133, 75950, 80570, 258370
7161, -166, 987, 207, 122080, -22470, 176540
7181, 54, 1052, 317, 123690, -89320, 94360
7201, 229, 1103, 340, 73080, -102550, 65870
7221, 342, 1130, 249, -7210, -97090, 72730
7241, 304, 1161, 58, -78960, -70700, 139370
7261, 78, 1168, 92, -76510, 15750, 247030
7281, 23, 1196, 129, -4970, 43050, 296100
7301, 131, 1206, 243, 72590, -11830, 253400
7321, 264, 1248, 265, 80920, -63420, 196210
7341, 281, 1225, 291, 71540, -49560, 181720
7361, 76, 1177, 265, 49910, -6300, 221410
7381, -69, 1042, 330, 3640, 79310, 235200
7401, 208, 1044, 292, -63210, 22260, 115360
7421, 449, 962, 142, -139790, -76790, -39340
7441, 514, 885, -88, -178710, -103950, -31710
7461, 245, 888, 79, -116200, -6230, 104790
7481, 271, 830, 93, -14770, 58450, 160790
7501, 377, 826, 129, 49910, -17150, 95970
7521, 209, 866, 171, 98280, -20090, 106330
7541, -26, 885, 333, 145460, 65870, 188160
7561, -68, 855, 330, 139580, 70770, 165480
7581, 78, 931, 428, 73430, -280, 37450
7601, 322, 910, 298, 4900, -61040, -95550
7621, 366, 897, 220, -70980, -92890, -144620
7641, 284, 915, 148, -114240, -18620, -109200
7661, 357, 951, 99, -136990, 17010, -103180
7681, 550, 918, 73, -115920, -43190, -173250
7701, 612, 870, 77, -37240, -96880, -205030
7721, 323, 855, 13, 26460, -41160, -113260
7741, -52, 1022, 142, 69790, 105630, 49210
7761, -179, 1095, 388, 110390, 214410, 90300
7781, 290, 1274, 316, 119770, 54110, -125160
7801, 589, 1174, 240, 55790, -171990, -355950
7821, 485, 1019, 62, -22190, -159950, -347830
7841, 0, 1131, 197, -41020, 57680, -109760
7861, -243, 1113, 328, -1400, 251860, 51870
7881, 176, 1185, 178, 8540, 127680, -82110
7901, 353, 955, -57, -33950, -108290, -291970
7921, -118, 1160, 2, -43750, -66360, -226170
7941, -541, 1130, 335, 71400, 205870, 33530
7961, -284, 1141, 401, 153020, 235480, 56980
7981, 236, 1264, 239, 103670, -60550, -219310
8001, 325, 975, -29, -35350, -223020, -383320
8021, -212, 1018, 130, -113960, -46480, -199710
8041, -469, 914, 235, -60410, 234570, 30450
8061, -157, 904, 123, -22400, 160860, 2730
8081, 151, 914, 111, -40390, -67340, -173390
8101, 254, 839, 68, -57470, -127820, -220850
8121, 22, 892, 112, -28420, -63560, -87010
8141, -214, 910, 113, 24500, 43890, 86100
8161, -339, 940, 152, 56350, 80290, 179690
8181, -269, 964, 221, 60200, 58380, 167720
8201, -37, 995, 277, 51940, -4270, 89950
8221, 171, 1070, 319, 27160, -63140, 18970
8241, 343, 1099, 174, -19320, -95480, 2170
8261, 258, 1138, 52, -76090, -112420, 58800
8281, 7, 1204, 42, -79240, -39200, 206360
8301, -174, 1210, 106, -17640, 58170, 342370
8321, -156, 1173, 274, 51660, 72520, 374150
8341, 148, 1214, 330, 93940, 11340, 289870
8361, 391, 1207, 232, 78400, -100520, 132580
8381, 293, 1211, 283, 25200, -141610, 79450
8401, 86, 1142, 284, -2100, -11830, 162890
8421, 95, 1072, 224, -35000, 83720, 229950
8441, 217, 977, 148, -78260, 52010, 170870
8461, 285, 904, 118, -104230, -14770, 87080
8481, 332, 908, 132, -97860, -32550, 53900
8501, 414, 950, 258, -59850, -11200, 62790
8521, 540, 881, 158, 2310, -30100, 33810
8541, 352, 869, 184, 25970, -89810, 32410
8561, 38, 839, 363, 55370, 5180, 151410
8581, 157, 784, 269, 50820, 128520, 225750
8601, 349, 777, 170, -6650, 35280, 116410
8621, 313, 730, 47, -55510, -68320, -22470
8641, 65, 776, 136, -64120, -39480, 2870
8661, -63, 818, 188, -7000, 82950, 79030
8681, 22, 886, 360, 51870, 102130, 94780
8701, 314, 955, 284, 96670, 33250, -12530
8721, 394, 949, 290, 78050, -108500, -141330
8741, 161, 952, 246, 43330, -101850, -151760
8761, -2, 1011, 437, 10430, 17080, -63420
8781, 485, 1393, 276, -79240, -39970, -271250
8801, 706, 981, 202, -156310, -208390, -433020
8821, 760, 662, -151, -157710, -158830, -285320
8841, 228, 1146, -104, -32900, 153370, 77840
8861, -435, 1085, 318, 141680, 492450, 327530
8881, -539, 932, 420, 187530, 370440, 174440
8901, -1, 1277, 371, 147910, -43540, -225260
8921, 409, 1168, 174, 59360, -224700, -450870
8941, 166, 1167, 188, 3360, -35630, -283990
8961, -297, 1250, 363, 47670, 283850, -35910
8981, -374, 1079, 380, 36190, 254170, -49000
9001, 12, 1107, 290, -12180, 20720, -258300
9021, 253, 1068, 157, -77910, -74760, -353920
9041, 53, 1077, -104, -108080, 31360, -194110
9061, -457, 873, 117, -47250, 264670, 48440
9081, -562, 886, 418, 37450, 317590, 49840
9101, 9, 957, 101, 81690, -29400, -139720
9121, 270, 968, 47, 63070, -238770, -230860
9141, -47, 1036, 38, 61110, -29610, -89460
9161, -550, 940, 207, 109410, 197400, 148050
9181, -646, 908, 300, 140630, 174720, 174090
9201, -314, 981, 316, 127190, -76160, -980
9221, -94, 858, 287, 68040, -231630, -133350
9241, 44, 887, 127, -20510, -248710, -118020
9261, -192, 917, 178, -64750, -83020, -12460
9281, -235, 876, 61, -67690, 1890, 70560
9301, -133, 879, 100, -59710, -51310, 55860
9321, 14, 919, 113, -24710, -93660, 45850
9341, 62, 1010, 181, 11270, -109830, 81970
9361, 15, 1077, 246, 43960, -77630, 150570
9381, -46, 1124, 285, 60550, -42560, 214900
9401, -118, 1154, 227, 31080, -39340, 239890
9421, -168, 1131, 216, -17920, -11270, 236110
9441, 34, 1146, 277, -47810, -17010, 190330
9461, 273, 1235, 271, -47040, -82740, 110880
9481, 464, 1164, 126, -36120, -161980, 68950
9501, 274, 1257, 215, -23660, -115360, 148190
9521, 14, 1197, 198, 12600, 40390, 284900
9541, -160, 1122, 310, 28140, 85050, 336840
9561, 44, 1021, 351, 32270, 53410, 253540
9581, 299, 1051, 380, 1610, -44730, 93940
9601, 470, 948, 173, -68670, -115710, -8820
9621, 363, 935, 194, -118720, -88620, 38570
9641, 320, 890, 130, -119490, 23590, 105700
9661, 280, 820, 54, -91980, 22890, 116200
9681, 131, 825, 94, -31570, 2100, 130060
9701, -31, 784, 204, 43890, 38500, 168770
9721, 26, 828, 249, 77070, 43330, 144270
9741, 159, 892, 250, 78050, -22260, 44380
9761, 88, 892, 328, 86800, -50330, -5950
9781, -20, 901, 321, 77910, -3710, -2240
9801, 128, 991, 349, 21490, 11340, -28420
9821, 392, 1030, 270, -14070, -50190, -129360
9841, 480, 987, 181, -48020, -115430, -206850
9861, 295, 945, -5, -80010, -77210, -174090
9881, -45, 1028, 149, -56420, 36470, -49700
9901, -31, 1113, 395, 37380, 158340, 7350
9921, 410, 1214, 232, 94010, 11060, -162470
9941, 534, 1069, 87, 29890, -178220, -340830
9961, 123, 1219, 23, -35630, -78820, -285530
9981, -326, 1333, 215, -17780, 179760, -77630
10001, -328, 1364, 410, 82250, 304360, -23240
10021, 194, 1619, 435, 161490, 98630, -214900
10041, 660, 1393, 241, 105000, -204610, -511630
10061, 656, 1084, -2, -65310, -294840, -571340
10081, 56, 1118, 151, -142030, -58520, -274680
10101, -389, 988, 181, -65240, 272790, 59010
10121, -594, 873, 125, -21700, 328090, 181370
10141, -488, 939, -94, -26810, 171220, 52990
10161, -543, 957, 62, -14770, 19460, -85050
10181, -399, 918, 214, 44870, 30170, -123340
10201, -150, 902, 368, 96110, -3290, -160160
10221, 132, 846, 245, 81760, -87150, -232120
10241, 157, 775, 97, -14000, -157360, -240870
10261, -187, 803, 20, -87780, -81270, -116690
10281, -519, 817, 63, -84070, 86380, 87640
10301, -638, 766, 58, -25200, 171570, 205170
10321, -400, 816, 152, 11900, 91210, 163240
10341, -71, 911, 237, 37730, -42000, 18480
10361, 158, 957, 267, 52920, -126420, -77350
10381, 280, 1017, 285, 36890, -144060, -58380
10401, 151, 1097, 182, 9100, -97580, 37170
10421, -78, 1202, 178, -19810, -28420, 190400
10441, -158, 1208, 72, -42840, 45920, 305620
10461, -248, 1244, 164, -35840, 27510, 335790
10481, -140, 1282, 270, 12600, 19390, 324170
10501, 70, 1337, 349, 58030, -14560, 274330
10521, 259, 1397, 351, 68600, -64260, 201530
10541, 297, 1398, 316, 25270, -80990, 156800
10561, 66, 1339, 267, -16380, -50400, 190400
10581, -49, 1166, 250, -51520, 32480, 282870
10601, 122, 1141, 202, -96810, 4970, 175210
10621, 268, 957, 37, -138320, -71120, 105840
10641, 186, 937, 152, -73290, -35000, 147770
10661, 171, 869, 218, 24080, 12460, 171290
10681, 237, 931, 356, 58170, -840, 134750
10701, 264, 814, 234, 38640, -30310, 102130
10721, 42, 801, 338, 16170, 11480, 135800
10741, 84, 754, 321, 6300, 31990, 101920
10761, 272, 777, 309, -29960, -38780, -8120
10781, 383, 754, 197, -58730, -67690, -71120
10801, 315, 737, 138, -46060, -45640, -34510
10821, 120, 809, 167, 4270, 33110, 31080
10841, -56, 846, 261, 73640, 60620, 51660
10861, -80, 913, 350, 98770, 46480, -9660
10881, 116, 988, 262, 53480, -33040, -130760
10901, 97, 1050, 233, 4550, -47180, -199080
10921, -23, 1159, 251, 4060, 14630, -188300
10941, 115, 1273, 265, 16660, 25200, -236600
10961, 324, 1315, 207, -9800, -42840, -337960
10981, 343, 1272, 155, -25970, -47180, -346430
11001, 151, 1268, 261, 12880, 31850, -252980
11021, 158, 1237, 342, 56000, 27930, -211540
11041, 310, 1154, 306, 39550, -37030, -247170
11061, 242, 1067, 161, -21070, -52570, -237230
11081, -169, 1017, 85, -42070, 49350, -112140
11101, -422, 1076, 277, 9940, 162260, -700
11121, -124, 1078, 301, 74480, 73290, -90370
11141, 238, 1069, 184, 47180, -132510, -276500
11161, 145, 1016, 168, -8470, -121520, -262220
11181, -241, 1033, 193, 7210, 57260, -72940
11201, -469, 936, 352, 48370, 150710, 44730
11221, -138, 923, 285, 44100, 42000, -52710
11241, 99, 902, 180, -32480, -100730, -192290
11261, -38, 895, 9, -85050, -59850, -139650
11281, -429, 859, 57, -60340, 83090, 35280
11301, -630, 793, 164, 16520, 171710, 131950
11321, -360, 835, 229, 60620, 67760, 57960
11341, -20, 951, 300, 51240, -70350, -91420
11361, 259, 895, 249, 21490, -147140, -149800
11381, 335, 951, 224, -15610, -154140, -89180
11401, 196, 1033, 182, -44170, -35070, 75530
11421, 53, 1111, 102, -42700, 12110, 230580
11441, -68, 1195, 38, -26040, 18270, 319970
11461, -158, 1297, 128, 20650, 15680, 377930
11481, -117, 1282, 364, 107800, 24220, 385490
11501, 144, 1297, 443, 147560, -22260, 297430
11521, 417, 1400, 296, 54810, -100590, 192780
11541, 361, 1374, 192, -50680, -88340, 184030
11561, 148, 1286, 104, -97160, -4620, 273840
11581, -43, 1236, 185, -80220, 76230, 355040
11601, -54, 1127, 132, -19740, 74760, 335440
11621, 15, 1013, 366, 22890, 30870, 278250
11641, 285, 951, 357, 48370, -5530, 155750
11661, 385, 963, 346, 2240, -59220, 40950
11681, 332, 838, 69, -82250, -40320, 16660
11701, 50, 816, 198, -120540, 10360, 126700
11721, 97, 736, 163, -73220, 92750, 160300
11741, 308, 692, 116, -41860, 3570, 54530
11761, 343, 743, 132, -30030, -73570, -47320
11781, 171, 784, 142, 9800, -19530, -10500
11801, -33, 871, 351, 82530, 46620, 61740
11821, 159, 942, 429, 127400, 72590, 56770
11841, 425, 953, 326, 112280, -46200, -86870
11861, 273, 929, 239, 37240, -130690, -175910
11881, -131, 989, 52, -15890, -22190, -96810
11901, -574, 1042, 283, -23660, 146510, 50890
11921, -312, 1290, 331, 35070, 240520, -10080
11941, 323, 1824, 286, 48440, -10990, -350210
11961, 793, 1583, 143, -30800, -282660, -699650
11981, 891, 906, -227, -136990, -337890, -747040
12001, 95, 1498, 168, -136220, -134470, -381010
12021, -450, 1122, 430, 63210, 328860, 81410
12041, -416, 1125, 190, 155470, 395780, 201600
12061, -179, 1298, 241, 81270, 79450, -35910
12081, -80, 1254, 166, 20090, -52780, -279300
12101, -146, 1235, 524, 10500, -19530, -288750
12121, 188, 1194, 408, 32690, 32060, -272020
12141, 459, 949, 103, -32550, -127820, -378490
12161, 162, 833, 19, -165480, -184030, -347200
12181, -278, 795, 76, -165690, 34440, -89180
12201, -596, 732, 163, -50750, 227780, 144830
12221, -525, 732, 147, 34580, 214690, 191310
12241, -263, 799, 225, 55160, 53620, 73360
12261, -83, 812, 228, 58310, -75600, -56350
12281, -134, 855, 252, 52430, -97300, -67830
12301, -330, 881, 230, 37100, -42420, 13370
12321, -397, 867, 264, 25130, 36330, 110460
12341, -125, 903, 250, 7770, 28280, 128940
12361, 98, 999, 238, -13300, -49490, 60270
12381, 226, 1026, 208, -33740, -112140, 27580
12401, 222, 1119, 202, -22820, -116200, 86590
12421, 55, 1200, 171, -2590, -71610, 194950
12441, -61, 1273, 213, 46130, 7560, 358610
12461, -17, 1281, 250, 67480, -21700, 330050
12481, 35, 1302, 314, 84070, -37100, 285530
12501, 101, 1286, 376, 68670, -22610, 249550
12521, 223, 1261, 369, 12740, -25410, 196210
12541, 352, 1235, 322, -43120, -53480, 154350
12561, 428, 1169, 315, -66010, -58030, 111300
12581, 527, 1075, 84, -79520, -84350, 131180
12601, 215, 1086, 213, -62020, 24290, 224490
12621, 80, 877, 48, -47320, 78260, 292810
12641, -73, 824, 264, 1610, 60410, 256130
12661, 209, 798, 308, 45850, -4620, 100380
12681, 493, 823, 284, 40670, -109830, -46130
12701, 512, 807, 272, -14770, -76440, -51730
12721, 439, 781, 194, -64120, 2940, 26040
12741, 329, 738, 95, -66570, 17710, 63140
12761, 163, 754, 113, -26600, 49560, 91560
12781, 61, 820, 115, 37450, 65100, 106190
12801, -85, 925, 253, 124250, 66710, 99400
12821, -156, 940, 393, 178360, 55230, 49980
12841, -1, 1020, 526, 153090, -17500, -81340
12861, 330, 1170, 414, 45010, -114030, -254520
12881, 423, 1140, 204, -97580, -131250, -329490
12901, 175, 1097, 49, -170660, -15260, -233310
12921, -169, 1209, 161, -117460, 150570, -131250
12941, -46, 1358, 237, -23520, 138880, -197050
12961, 354, 1507, 220, 36400, -57260, -400680
12981, 592, 1348, 138, 30030, -186270, -498470
13001, 269, 1334, 179, 31220, -78190, -340410
13021, -222, 1267, 415, 75250, 172200, -81760
13041, -213, 1169, 414, 69300, 179620, -75390
13061, 222, 1293, 342, -29960, -45220, -306810
13081, 518, 965, -16, -160370, -185500, -458220
13101, 177, 828, 54, -189700, -85750, -284060
13121, -152, 881, 235, -40670, 169190, -16100
13141, -185, 794, 251, 67550, 152810, 63070
13161, -32, 841, 219, 82040, -7560, -21070
13181, -213, 909, 120, 58660, -44450, -35770
13201, -512, 921, 259, 69510, 72730, 83790
13221, -596, 867, 338, 114800, 138320, 136780
13241, -330, 862, 384, 100310, 29960, 38360
13261, -40, 914, 340, 18900, -79240, -114520
13281, 133, 875, 198, -89460, -110040, -158270
13301, 100, 840, 72, -144130, -73780, -84000
13321, -111, 854, 85, -109200, 12670, 62370
13341, -215, 877, 118, -33180, 68950, 176330
13361, 21, 978, 214, 17010, 20790, 181300
13381, 261, 1116, 217, 63770, -73850, 127400
13401, 256, 1259, 289, 101010, -115780, 145530
13421, 51, 1327, 326, 114590, -43890, 260260
13441, -56, 1327, 329, 79450, 39410, 357910
13461, 89, 1306, 191, 13720, 27510, 334180
13481, 159, 1296, 183, -36680, -31920, 261240
13501, 156, 1242, 159, -29680, -16520, 243460
13521, 28, 1191, 228, 1750, 4060, 257740
13541, 131, 1128, 220, 10010, 23450, 253960
13561, 230, 1089, 249, 21700, -14560, 195510
13581, 246, 978, 284, 21490, -26950, 148540
13601, 349, 1030, 337, -1890, 18200, 122430
13621, 484, 983, 219, -38850, 16800, 46900
13641, 429, 835, 33, -77840, -43890, 26250
13661, 123, 826, 211, -71610, 3990, 120960
13681, 151, 776, 189, -26950, 127400, 189140
13701, 338, 800, 247, 5320, 57610, 111370
13721, 434, 794, 144, 24430, -47670, -2940
13741, 139, 858, 263, 46760, -53550, 30100
13761, -84, 827, 238, 75110, 72100, 121730
13781, -213, 898, 375, 69090, 103950, 136220
13801, 53, 962, 362, 63280, 59850, 22260
13821, 323, 1016, 308, 31640, -77140, -159250
13841, 333, 1014, 107, -34440, -140280, -268030
13861, 55, 1067, 97, -104020, -69790, -233870
13881, -161, 1150, 201, -84770, 75670, -140490
13901, 29, 1311, 283, -4550, 122220, -149660
13921, 383, 1372, 228, 37380, -3710, -307160
13941, 546, 1229, 143, 11550, -142520, -462280
13961, 211, 1272, 102, -28490, -117460, -422590
13981, -262, 1271, 243, -2100, 85680, -195720
14001, -439, 1198, 317, 66570, 242200, -43610
14021, -142, 1235, 340, 90160, 149730, -119210
14041, 218, 1301, 360, 53270, -58800, -324520
14061, 524, 1031, 195, -29610, -167860, -463260
14081, 422, 882, 35, -118720, -190050, -448210
14101, 5, 899, 114, -136500, -59850, -228270
14121, -330, 846, 150, -49070, 140420, 44660
14141, -494, 803, 190, 36190, 197960, 193130
14161, -425, 842, 91, 74200, 120260, 152880
14181, -442, 900, 207, 71330, -6090, 58520
14201, -384, 923, 275, 80780, -6020, 10500
14221, -239, 924, 332, 84700, -6930, -10290
14241, -84, 900, 323, 72100, -31640, -42840
14261, 0, 878, 233, 13650, -59360, -63140
14281, -20, 864, 79, -103950, -17710, 37030
14301, -26, 902, 108, -92610, 10080, 101150
14321, 143, 905, 31, -17710, -36190, 124810
14341, 108, 1084, 146, 49560, -38640, 169820
14361, -105, 1197, -19, 87500, 18900, 292950
14381, -443, 1405, 147, 151550, 105700, 426930
14401, -599, 1283, 295, 218050, 135240, 440160
14421, -432, 1127, 506, 189840, 3500, 267260
14441, 21, 1314, 426, 56980, -129990, -5110
14461, 246, 1230, 280, -105000, -171360, -91980
14481, 86, 1240, 112, -176960, -16940, 34300
14501, -245, 1147, 149, -165270, 150990, 180110
14521, -426, 916, 82, -145740, 196280, 156940
14541, -320, 908, 49, -196840, 109270, 18760
14561, 4, 985, 112, -175700, 14770, -148120
14581, 315, 935, 90, -62230, -134400, -236110
14601, 404, 946, 172, 31010, -143010, -176820
14621, 226, 963, 235, 70840, -19110, -18760
14641, -26, 1019, 286, 68180, 86940, 121310
14661, -166, 977, 301, 69370, 96810, 149730
14681, -179, 980, 263, 53480, 29540, 93030
14701, -124, 983, 313, 22260, -2240, 17920
14721, 0, 969, 266, -11340, -16380, -47110
14741, 101, 967, 241, -49700, -25690, -80080
14761, 176, 947, 193, -50190, -32620, -79170
14781, 160, 923, 206, -29540, -29330, -46900
14801, 48, 907, 158, -4620, -12180, 420
14821, -78, 920, 144, 7490, 10290, 44870
14841, -91, 988, 176, 20160, 11060, 44590
14861, 29, 942, 239, 54880, -29190, 280
14881, 103, 982, 292, 74060, -60690, -35630
14901, 54, 971, 180, 39830, -38850, -25760
14921, -55, 922, 109, -17010, -9660, 6440
14941, 0, 924, 100, -31640, 4060, -2800
14961, 161, 901, 72, 10500, -51100, -48370
14981, 187, 908, 93, 48090, -59430, -58100
15001, 187, 995, 115, 58450, -27510, -19180
15021, 179, 1128, 237, 119000, -12390, 17570
15041, 160, 1239, 365, 223090, -28210, 50260
15061, 75, 1228, 515, 280700, -30870, 79870
15081, 79, 1365, 584, 224210, -6510, 81690
15101, 114, 1377, 609, 118720, 6930, 40320
15121, 129, 1462, 542, -1190, 10080, -6020
15141, 152, 1426, 512, -122430, 37310, -31500
15161, 163, 1312, 366, -194110, 32480, -61040
15181, 194, 1317, 245, -291690, 22190, -66500
15201, 269, 1280, 296, -322630, 48160, -77630
15221, 127, 1153, 154, -231350, 18060, -47880
15241, -155, 1074, 290, -222040, 57330, 53690
15261, -163, 890, 236, -250250, 153790, 60200
15281, 24, 852, 131, -241080, 43610, -19110
15301, 66, 814, 205, -246680, 2380, -75250
15321, 51, 623, 104, -214900, 32620, -74270
15341, -32, 610, 192, -174440, 27510, -30870
15361, -91, 578, 211, -72450, 41580, 490
15381, -170, 620, 333, 9100, 28840, 26040
15401, -169, 500, 312, 56490, 22820, 24850
15421, -141, 660, 322, 48370, -3850, 11410
15441, 57, 698, 154, -10150, 22120, -26530
15461, 126, 772, 194, -16870, -37590, -50540
15481, 23, 781, 187, 66780, -42980, -21000
15501, -143, 756, 161, 146790, -5390, 50260
15521, -70, 912, 25, 136640, 27930, 74410
15541, 89, 1077, 62, 42140, 41720, 26740
15561, 311, 1293, -4, 113190, -31150, -29050
15581, 46, 1370, 328, 359520, -124320, 15050
15601, -321, 1107, 328, 529760, -35350, 146790
15621, -324, 1162, 187, 382830, 39130, 212030
15641, 120, 1469, 32, 88060, 60550, 44520
15661, 566, 1559, -77, -35420, -63070, -196000
15681, 264, 1380, 179, 183470, -184590, -215180
15701, -253, 1249, 146, 381850, -55790, 21560
15721, -485, 1168, 111, 294770, 128380, 246400
15741, -161, 1160, 15, 115710, 167930, 176610
15761, 291, 1231, 31, 21070, 24640, -83020
15781, 475, 1041, 49, 61460, -117320, -256340
15801, 322, 1028, -50, 99400, -96740, -203700
15821, 106, 1112, -83, 28910, 41580, -8750
15841, -93, 1034, 105, 15540, 143990, 138810
15861, 28, 1136, 106, 127680, 122920, 170030
15881, 48, 1293, 359, 190960, 41370, 129640
15901, -10, 1185, 315, 205310, 15960, 95970
15921, -127, 1224, 277, 114170, 10990, 89600
15941, -48, 1364, 261, -55300, 41370, 69930
15961, 82, 1458, 313, -146090, 47110, 5390
15981, -27, 1344, 24, -133700, -6860, -41930
16001, -100, 1470, 83, -263620, 15470, -31920
16021, 215, 1621, 80, -471520, 112210, -89460
16041, 544, 1485, -97, -379050, -17290, -217770
16061, 192, 1420, 66, -234500, -211470, -187390
16081, 7, 1118, -83, -295400, 16590, -27650
16101, 122, 1104, -58, -453950, 140070, 10220
16121, 134, 960, 17, -174790, -62860, -46970
16141, -71, 841, 250, -77350, 36890, 32200
16161, 14, 971, 241, -56630, -2590, 33250
16181, -79, 730, 235, -54530, -24220, 21700
16201, -90, 755, 429, -92470, 22750, -12040
16221, 64, 665, 293, -72240, -52710, -49840
16241, 18, 662, 394, -60340, -31850, -34720
16261, 40, 674, 340, -63000, 12040, -18410
16281, 3, 582, 332, -48370, -8540, -9240
16301, -12, 637, 336, -12110, 1120, 8190
16321, -35, 646, 360, 34300, 1050, 24290
16341, -67, 661, 397, 62300, 3640, 30310
16361, -27, 636, 335, 54390, -7560, 14210
16381, 82, 807, 244, 33740, -18690, -840
16401, 125, 857, 276, 78260, -28770, 280
16421, -28, 842, 295, 172480, -18550, 51940
16441, -181, 788, 197, 161980, 34720, 89530
16461, -28, 878, -19, -3990, 60130, 29120
16481, 201, 964, 9, -75600, 26180, -92540
16501, 560, 1376, -134, 239820, -146580, -106330
16521, 230, 1662, 232, 573650, -103180, 84070
16541, -317, 1325, 473, 584220, 118720, 288820
16561, -352, 1107, 216, 309120, 108990, 255780
16581, 119, 1507, 182, 61670, -2310, -26180
16601, 469, 1442, 142, 81760, -131810, -239820
16621, 283, 1233, 122, 194250, -139300, -156800
16641, -98, 1112, 34, 88830, 66640, 49210
16661, -135, 1105, -55, -75950, 189070, 76020
16681, 217, 1136, -233, -133840, 93240, -77630
16701, 445, 1160, -117, -7000, -72520, -178080
16721, 322, 1029, -8, 222530, -49560, -87850
16741, 6, 1070, 9, 204540, 55160, 103600
16761, -112, 1003, -41, 98700, 130270, 173880
16781, 58, 1105, -28, 78820, 49350, 93170
16801, 131, 1194, 177, 141540, -15750, 15190
16821, 47, 976, 162, 186900, -25760, 29680
16841, -82, 1021, 70, 62440, 12880, 69230
16861, 48, 1177, 79, -81130, 60760, 44590
16881, 245, 1506, 261, -30170, 10850, -15470
16901, 248, 1476, 454, 166600, -68740, -1050
16921, -119, 1287, 281, 173320, -86870, 99960
16941, -285, 1474, 200, -181510, 80920, 166180
16961, -37, 1595, 363, -414470, 177940, -22050
16981, 260, 1541, 134, -366380, -14140, -246120
17001, 398, 1824, -606, -497630, -94430, -226170
17021, -10, 1111, -75, -931140, 175700, -200200
17041, 522, 651, -486, -794010, 188230, -352030
17061, 592, 1304, -151, -249200, -205170, -300580
17081, 122, 874, 68, 109480, -98350, -26530
17101, -119, 891, 362, 105910, 91140, 190400
17121, -108, 1008, 467, 227710, 44310, 205450
17141, -339, 638, 697, 329140, -60690, 203000
17161, -280, 970, 736, 200760, -2800, 162540
17181, -8, 982, 503, -63140, 15680, -6650
17201, 98, 919, 416, -212310, -59360, -126910
17221, 116, 860, 270, -241360, -40180, -126770
17241, 61, 625, 198, -238350, -21770, -86940
17261, 65, 519, 96, -222180, 2170, -60970
17281, 106, 612, 144, -155890, 4270, -37450
17301, 19, 760, 320, 33810, -21350, 13020
17321, -82, 803, 466, 195160, 140, 81270
17341, -98, 688, 436, 229180, 9940, 98560
17361, 46, 1067, 451, 151900, -13790, 58590
17381, 193, 939, 325, 63910, -6860, -11900
17401, -140, 879, 471, 135240, -66080, 3570
17421, -144, 710, 137, 125370, 28560, 67830
17441, 6, 874, 0, -38010, 48720, 20720
17461, 271, 733, -202, -247660, 66500, -119070
17481, 730, 1412, -373, -148540, -68810, -217840
17501, 130, 1703, 180, 372540, -158060, -72520
17521, -404, 1353, 253, 640500, 119980, 267470
17541, -409, 1191, 266, 513940, 220780, 436730
17561, 172, 1593, 203, 326060, 56560, 225330
17581, 455, 1424, 224, 276990, -162820, -115920
17601, 226, 1357, 129, 252420, -174720, -190680
17621, -47, 1087, -58, 100800, 36540, -45430
17641, 17, 1017, -70, -120680, 199710, 21350
17661, 361, 1106, -81, -166460, 192290, -69860
17681, 353, 1303, 153, 97440, 3150, -103950
17701, -2, 1226, 300, 326410, -16030, 24990
17721, -223, 1077, 128, 276850, 81550, 179830
17741, -133, 1039, 21, 88760, 68740, 173880
17761, 112, 1010, -43, -79030, 22260, 19810
17781, 257, 1068, 30, -121170, -28000, -111160
17801, 188, 1023, -6, -53130, -44310, -101360
17821, 5, 1028, 29, -14280, -14070, -5390
17841, -14, 998, 58, -42770, 32900, 61670
17861, 117, 1321, 262, -43890, 14980, 43050
17881, 307, 1958, 439, 71750, -37800, 23660
17901, -57, 1153, 491, 272160, -121310, 73080
17921, -275, 1522, 243, 200550, -112000, 174860
17941, -140, 1666, 130, -634060, 201670, -117740
17961, 303, 1769, 178, -649180, 42560, -402780
17981, 593, 1897, -160, -591080, -152530, -421610
18001, 525, 1161, -644, -799680, -114450, -193060
18021, 68, 253, -292, -696500, 69930, -30590
18041, 169, 532, -280, -214270, 40670, 36470
18061, 79, 722, 83, 194740, -20860, 97650
18081, 123, 976, 225, 327250, -49910, 119630
18101, 126, 1012, 409, 391230, -134470, 106050
18121, 117, 1036, 606, 400820, -145110, 114240
18141, 66, 1133, 817, 339150, -68320, 116620
18161, -60, 995, 798, 134820, 490, 91070
18181, -19, 1087, 587, -141680, 15680, -2940
18201, 106, 965, 376, -298200, -4130, -96250
18221, 144, 813, 273, -334320, -19530, -124670
18241, 126, 648, 205, -310660, 15330, -115290
18261, 154, 471, 53, -294350, 10990, -99960
18281, 177, 471, 50, -229530, 11970, -87850
18301, 229, 639, 42, 17850, -12530, -17640
18321, -16, 864, 391, 275030, 38360, 107030
18341, -132, 835, 428, 353150, 68110, 161700
18361, -121, 971, 476, 277690, 1050, 110810
18381, 54, 1143, 541, 190330, -20930, -6720
18401, 92, 902, 440, 170660, -95900, -44450
18421, -39, 806, 366, 105000, -21420, -26670
18441, 111, 1044, -86, -97860, 33320, -54250
18461, 83, 861, 75, -270620, 84980, -140140
18481, 418, 976, -189, 61530, -54390, -158410
18501, -95, 1229, 326, 416290, -63700, 60830
18521, -300, 1043, 255, 441910, 136220, 204680
18541, -150, 1081, 110, 232470, 50050, 115850
18561, 343, 1499, 104, 57190, -1330, -132440
18581, 594, 1428, 168, 232680, -128730, -223160
18601, 92, 1342, 278, 360290, -61110, -14700
18621, -318, 1126, 181, 192500, 164360, 219170
18641, -284, 1122, 41, 24010, 186060, 185780
18661, 101, 1238, 75, -38500, 67270, -36330
18681, 303, 1121, 112, 80360, -71260, -161560
18701, 167, 1041, 53, 88270, -54810, -92190
18721, 51, 937, -61, -25970, 46200, 9940
18741, 113, 969, -103, -86940, 60900, 18410
18761, 203, 977, 20, -19390, 27580, -9170
18781, 242, 1437, 178, 159040, -10430, 42000
18801, -152, 1073, 362, 285600, 17850, 154000
18821, -286, 1123, 175, 145810, 76930, 225890
18841, -165, 1312, 220, -98210, 77000, 100170
18861, 144, 1496, 343, -101850, 3080, -82250
18881, 256, 1430, 491, -12600, -97300, -147140
18901, 248, 1449, -70, -77210, -127120, -92750
18921, 21, 1420, 106, -446600, 6510, -32340
18941, 309, 1216, -71, -554330, 150010, -110740
18961, 364, 1268, 59, -373310, -50960, -171150
18981, 123, 1163, -212, -217280, -89460, -43820
19001, -293, 1013, 97, -239820, 36610, 167720
19021, -171, 1075, 242, -139020, 111090, 172270
19041, 2, 1163, 479, 26530, -54530, 47460
19061, 37, 927, 418, 87570, -143080, 11900
19081, 53, 1082, 446, -117950, -87500, 7210
19101, 238, 787, 294, -294770, -6930, -87990
19121, 267, 807, 201, -276290, -90930, -121590
19141, 53, 570, 221, -237230, -43820, -26810
19161, 100, 537, 135, -228690, 45010, 35420
19181, 199, 513, 227, -179270, -1330, -17850
19201, 172, 652, 461, 13090, -37170, -16520
19221, 116, 641, 606, 161070, -5040, 31920
19241, 22, 546, 593, 183960, 70, 56560
19261, 74, 799, 519, 80010, 4200, 53970
19281, 19, 715, 483, 8330, 6160, 18060
19301, -110, 710, 574, 55020, -210, 41020
19321, -35, 546, 362, 55090, 28350, 32690
19341, 142, 775, 139, -26530, -4900, -32480
19361, 269, 729, 96, -187810, 36330, -118650
19381, 398, 830, -24, -121800, -19950, -176400
19401, -167, 947, 574, 302190, -102830, 1050
19421, -234, 614, 244, 460110, 122570, 170240
19441, 8, 1059, 125, 267190, 82600, 128100
19461, 364, 1026, 110, -65380, 60060, -93730
19481, 527, 1333, 96, 110040, -73010, -234290
19501, -220, 1361, 587, 570570, -172270, -7700
19521, -410, 1006, 284, 522200, 161770, 279790
19541, -80, 1410, 141, 205800, 146160, 237720
19561, 443, 1428, 118, -46340, 21700, -92890
19581, 416, 1311, 242, 81340, -120750, -298970
19601, -112, 1187, 284, 266000, -131880, -125090
19621, -331, 942, 168, 183260, 106400, 131180
19641, -2, 976, 6, -10010, 161000, 138460
19661, 398, 985, -33, -141540, 72870, -96600
19681, 536, 995, 22, -129500, -47110, -266280
19701, 196, 1005, -47, 27440, -40110, -162260
19721, -69, 931, -108, 71610, 52010, 100730
19741, -120, 1003, -55, 18480, 156660, 235130
19761, 6, 1064, 155, 23870, 131740, 175770
19781, 175, 1402, 289, 321720, -66990, 77140
19801, -165, 929, 421, 226450, -4200, 127820
19821, -115, 1149, 187, -111370, 61670, 51870
19841, 101, 1215, 115, -259490, 17710, -124670
19861, 332, 1268, 176, -158760, -64050, -171290
19881, 302, 1446, 443, 9590, -68740, -98210
19901, 170, 1180, 197, -47320, -84070, 27510
19921, 21, 1390, 231, -284830, 9310, 46130
19941, 215, 1364, 109, -332220, 6160, -15890
19961, 191, 1461, 227, -210070, -68320, 5390
19981, -68, 1187, -116, -278390, 30940, 132090
20001, -332, 1082, 147, -433650, 166180, 86450
20021, 106, 1042, 66, -317030, 43260, -105420
20041, 336, 1115, 222, -134400, -169680, -184660
20061, 310, 786, 134, -131810, -119490, -112910
20081, 202, 828, 183, -252980, -8750, -41160
20101, 201, 615, 163, -161840, -5390, -23100
20121, 101, 629, 371, -32200, -39200, 23450
20141, 86, 593, 319, -8260, -560, 37170
20161, 67, 545, 370, -39340, -13160, 11130
20181, 141, 532, 283, -34790, -14560, -17570
20201, 193, 629, 269, -23380, -8120, -20230
20221, 187, 661, 275, 37590, -12670, -1890
20241, 48, 751, 435, 133140, 17780, 48510
20261, -25, 727, 393, 170030, 31220, 67690
20281, -9, 812, 320, 112280, 24640, 35140
20301, 159, 966, 354, 70420, 20440, -33460
20321, 194, 963, 375, 170660, -31920, -43050
20341, 13, 807, 334, 203350, -21490, 9450
20361, 99, 925, 0, 36330, 58030, 3920
20381, 204, 884, -38, -225330, 110880, -101780
20401, 663, 1138, -371, -73360, -17850, -188300
20421, 338, 1574, -19, 411110, -108290, -22120
20441, -183, 1409, 201, 568400, 162470, 254240
20461, -318, 1239, 76, 420700, 180740, 340270
20481, 99, 1693, 209, 310240, 47040, 130270
20501, 367, 1465, 366, 414260, -140210, -107030
20521, 278, 1163, 471, 436030, -192570, -126420
20541, 65, 1239, 175, 169680, -16030, -10360
20561, 0, 1136, -98, -155610, 129850, 50470
20581, 37, 1055, -114, -305340, 171220, -8330
20601, 214, 1039, -157, -155470, 90720, -66080
20621, 213, 1029, -48, 64610, -42560, -51380
20641, 152, 918, -175, 43890, 4620, -17150
20661, 196, 996, -106, 700, 42980, 4970
20681, 222, 1029, 93, 123200, 7560, 15680
20701, 244, 1330, 227, 286720, -43260, 51940
20721, -157, 920, 361, 309260, -37380, 130270
20741, -143, 1035, 106, 99610, 47880, 153440
20761, 49, 1163, -14, -215600, 55930, -140
20781, 273, 1165, 9, -287700, 7840, -160580
20801, 419, 1867, 238, -104440, -58030, -154980
20821, -68, 1006, 311, 143780, -85610, -13790
20841, -158, 1317, -32, -7140, -40040, 165270
20861, -57, 1573, 286, -353640, 109340, 88340
20881, 451, 1943, 321, -307370, 75250, -151060
20901, 390, 1691, -190, -107450, -169120, -206780
20921, 101, 1405, -451, -449470, -65730, -23870
20941, -176, 667, -27, -832580, 323050, -15120
20961, 322, 588, -302, -641480, 259630, -235690
20981, 267, 1149, 205, -136850, -132300, -206360
21001, 90, 752, 147, 238700, -80570, -23940
21021, 4, 936, 475, 89250, -22120, 80850
21041, 164, 960, 410, 90020, -29610, 16800
21061, 55, 777, 505, 190820, -170940, 38640
21081, -215, 858, 684, 156450, -83580, 115220
21101, -72, 845, 393, -20790, 91840, 90440
21121, 73, 807, 348, -190050, 18130, -35420
21141, 151, 644, 226, -221550, -32200, -112210
21161, 72, 589, 237, -172970, -33460, -69370
21181, 36, 473, 123, -115570, 13090, -6650
21201, 65, 620, 117, -99470, 30310, 11480
21221, 70, 752, 172, -40810, 19880, 8680
21241, -108, 859, 362, 157850, -8400, 61460
21261, -257, 667, 444, 270550, 23730, 130410
21281, -49, 742, 251, 225610, 30590, 98490
21301, 310, 1106, 31, 32340, -10430, -38150
21321, 535, 1011, -13, -140140, -32690, -192780
21341, 291, 1290, 152, 120330, -110110, -140140
21361, -258, 1034, 339, 415450, 9870, 134820
21381, -313, 970, 115, 382480, 180530, 314720
21401, 164, 1333, 51, 135870, 139580, 196000
21421, 608, 1138, -247, -23800, 2660, -118440
21441, 624, 1637, 1, 60620, -193340, -260610
21461, 66, 1616, 297, 386120, -92050, -60060
21481, -364, 1305, 218, 529690, 171780, 272930
21501, -471, 1141, 258, 349650, 223860, 436520
21521, 22, 1334, 193, 176190, 126210, 248150
21541, 328, 1262, 198, 93730, -87990, -91560
21561, 439, 1156, 17, 24780, -177030, -271670
21581, 414, 1030, -275, -138670, -108360, -239820
21601, 273, 829, -272, -307930, -3220, -114310
21621, 253, 952, -276, 11550, 46060, 83230
21641, 103, 1185, 22, 283430, 52640, 168840
21661, -93, 914, 93, 305830, 42840, 206430
21681, -64, 977, 134, 145670, 9310, 107940
21701, 147, 1129, 147, 61250, -30800, -35980
21721, 294, 1354, 229, 112980, -76930, -68460
21741, 117, 1217, 371, 174580, -56770, 27440
21761, -155, 1103, 216, 4130, 48440, 117530
21781, -128, 1242, 45, -327950, 108640, 8750
21801, 77, 1212, 142, -384440, 68320, -202860
21821, 578, 1994, 175, -130130, -114030, -250530
21841, 311, 1462, 454, 47320, -149170, -95760
21861, 101, 1362, -448, -335160, -5040, 129780
21881, -283, 1089, 6, -790440, 320530, 57960
21901, 12, 922, -87, -650370, 318500, -261100
21921, 493, 1536, -209, -198870, -166250, -266630
21941, 73, 791, 56, 32480, -115920, -76090
21961, -70, 595, 164, -173810, 114800, -23800
21981, 239, 689, 201, -149660, 11200, -187600
22001, 491, 758, 118, 74130, -217840, -190820
22021, 237, 812, 474, 221200, -121030, -7070
22041, -76, 785, 532, 203770, 86590, 178010
22061, -124, 961, 452, 48090, 86310, 171010
22081, -169, 936, 427, 10500, 15190, 91210
22101, -243, 855, 495, 23520, 11550, 76790
22121, -191, 781, 499, -12250, 25480, 33040
22141, 31, 756, 297, -112210, -27580, -70490
22161, 198, 849, 230, -210070, -61950, -157150
22181, 256, 736, 154, -112350, -61250, -119980
22201, 9, 734, 336, 34300, -2100, 15260
22221, -25, 708, 246, 77980, 63350, 69510
22241, 30, 706, 163, 50120, 16730, 37870
22261, 177, 966, 98, -39900, 27580, -25480
22281, 283, 986, 10, 35350, -17080, -46900
22301, 26, 1154, 251, 272860, -25060, 78260
22321, -224, 912, 241, 369530, 77840, 189700
22341, -63, 963, 56, 179480, 59710, 129710
22361, 263, 1098, -12, -105210, 46970, -100940
22381, 810, 1482, -299, -37520, -111090, -268310
22401, 456, 1561, 224, 501550, -213570, -94080
22421, -262, 1494, 417, 683690, 122710, 287840
22441, -569, 1052, 158, 376180, 305200, 517720
22461, -370, 1145, 170, 57470, 201110, 308840
22481, 184, 1491, 100, -28770, 11690, -110740
22501, 513, 1254, 77, 34020, -203070, -331870
22521, 513, 1068, -44, 58170, -211540, -251090
22541, 231, 1012, -105, -81060, -10150, -37100
22561, 134, 843, -205, -178290, 139370, 96320
22581, 153, 1131, -87, -58730, 86800, 131390
22601, 104, 1338, 122, 218750, 27370, 150500
22621, -124, 1059, 287, 364980, 14070, 197190
22641, -117, 1013, 192, 193130, 15050, 165550
22661, 149, 1149, 142, -28280, 3360, -6300
22681, 367, 1237, 76, -102620, -61880, -154700
22701, 274, 1204, 208, -51100, -80710, -133070
22721, 84, 1138, 108, -19110, -1400, -19040
22741, 7, 1168, 107, -141330, 60130, 34230
22761, 166, 1217, 234, -185640, 45500, -37520
22781, 368, 1708, 397, -38920, -61530, -80640
22801, -11, 957, 402, 110040, -125580, -21770
22821, 28, 1389, -217, -83860, -55860, 105980
22841, -166, 1423, 201, -540610, 181790, 109690
22861, 93, 1414, 163, -629580, 356090, -165340
22881, 401, 1086, -174, -455070, 41650, -327390
22901, 351, 909, -168, -357770, -198590, -247660
22921, 159, 539, 69, -387450, 1820, -148540
22941, 399, 592, -113, -362460, 100590, -173110
22961, 408, 850, 27, -45990, -122990, -131670
22981, 81, 778, 372, 264950, -96460, 45640
23001, -109, 863, 562, 305130, 106680, 184100
23021, -18, 894, 462, 214550, 100310, 154630
23041, -43, 873, 538, 153790, -51240, 75740
23061, -165, 782, 590, 119350, -52570, 49490
23081, -53, 798, 343, 19810, 22540, 26530
23101, 83, 831, 185, -154140, 2240, -50750
23121, 142, 764, 24, -244580, -19250, -114100
23141, 71, 743, 36, -179550, -15890, -82880
23161, 5, 712, 15, -33040, 15470, -5810
23181, 43, 769, -28, 79660, 36960, 44450
23201, 181, 843, -5, 63840, 41230, 19950
23221, 559, 1235, -158, 19670, 4340, -75390
23241, 413, 1618, 135, 296660, -155400, -91210
23261, -222, 1249, 515, 671510, -97860, 116060
23281, -340, 1093, 331, 611870, 159390, 345100
23301, 2, 1279, 222, 301000, 142800, 294490
23321, 380, 1512, 213, 92820, -41160, 13440
23341, 446, 1206, 135, 98630, -156800, -184520
23361, 147, 1163, -28, 162750, -172410, -110390
23381, -128, 1110, -95, 50050, 3500, 77910
23401, -170, 954, -78, -121240, 196840, 163380
23421, 175, 1132, -140, -118510, 177100, 75180
23441, 387, 1217, 7, 52570, -46690, -82320
23461, 483, 1154, 69, 255150, -136150, -100030
23481, 350, 1141, 139, 149590, -19110, 11060
23501, 223, 1178, 109, 89530, 54250, 104090
23521, 108, 1282, 177, 116760, 73640, 154000
23541, -33, 1335, 299, 155470, 86520, 174790
23561, -205, 1077, 278, 79800, 63350, 146860
23581, -126, 1160, 62, -154560, 50400, 25830
23601, 40, 1288, 122, -325010, 58940, -162540
23621, 368, 1423, 127, -236530, -56490, -265580
23641, 535, 1632, 264, -21280, -156310, -197330
23661, 312, 1376, 78, -72940, -68180, -3500
23681, 21, 1275, -95, -411320, 144970, 111580
23701, -104, 1109, 128, -540540, 280630, -19670
23721, 281, 1128, 58, -346500, 38500, -177590
23741, 507, 1565, 113, -79030, -161910, -160720
23761, 186, 987, -19, -88550, -55790, 14420
23781, -132, 1022, 201, -318150, 168350, 68670
23801, -90, 870, 267, -207760, 163660, -32340
23821, 40, 836, 295, -20860, -59080, -36470
23841, -41, 730, 485, -51800, -12740, -45150
23861, 163, 792, 227, -232750, -7980, -126280
23881, 271, 597, 90, -287070, -90790, -170870
23901, 177, 580, 108, -145460, -55230, -54530
23921, -121, 433, 248, -25340, 63560, 86940
23941, -76, 506, 150, -15120, 94920, 91420
23961, 85, 770, 200, 18550, -15890, 15050
23981, 11, 883, 398, 253120, -52360, 57680
24001, -143, 866, 656, 359590, -4270, 130060
24021, -87, 740, 599, 279860, -15540, 96950
24041, 3, 774, 419, 101850, -61880, 6790
24061, 202, 1109, 263, -141470, -20160, -96530
24081, 244, 829, 77, -43680, -73080, -101500
24101, -135, 739, 205, 118160, -35770, 71750
24121, -102, 866, 60, 47530, 141890, 101850
24141, 119, 864, 2, -141610, 99400, -48300
24161, 664, 1169, -332, -84770, -99260, -220990
24181, 625, 1828, 79, 515270, -281820, -125650
24201, -198, 1681, 561, 867160, 14420, 228480
24221, -669, 1141, 479, 594650, 311640, 516040
24241, -304, 1484, 445, 179060, 176820, 337050
24261, 159, 1448, 500, 142100, -133070, -105560
24281, 488, 1386, 226, 34580, -312900, -317030
24301, 393, 1358, 96, -232680, -176260, -250880
24321, 262, 993, -122, -378070, 9590, -122080
24341, 140, 936, -75, -296660, 33320, -9310
24361, 78, 1015, 51, -6930, 29260, 74970
24381, -112, 916, 230, 166110, 27300, 141190
24401, -52, 883, 310, 131390, 40460, 124250
24421, 177, 930, 310, 58030, -25830, 3780
24441, 270, 936, 367, 25760, -77490, -77630
24461, 229, 848, 176, -35560, -54670, -63770
24481, 156, 797, 52, -175490, -7560, -16310
24501, 160, 728, -62, -258020, 33460, -13020
24521, 181, 724, -82, -213010, 13860, -11410
24541, 256, 971, 8, -75390, -8120, 10850
24561, 128, 806, 47, 77350, -30100, 51590
24581, 39, 857, 164, 80360, 9310, 93380
24601, 108, 955, 109, 74340, 21630, 73290
24621, 61, 1050, 246, 97230, -15470, 57540
24641, 76, 1056, 215, 110670, 2660, 55020
24661, 123, 1117, 160, 48230, -11970, 31850
24681, 304, 1264, 81, -46270, -12740, -18830
24701, 449, 1363, -21, -84770, -45850, -73570
24721, 386, 1479, 11, -44800, -62720, -57960
24741, 245, 1535, 47, 17430, 630, 32620
24761, 137, 1543, 123, 79380, 42420, 101220
24781, 143, 1536, 174, 97020, 39130, 94500
24801, 247, 1539, 197, 85820, -4200, 37170
24821, 299, 1496, 141, 45360, -42980, -27090
24841, 178, 1459, 66, -20020, -29680, -40530
24861, 101, 1364, 9, -78470, 19950, -15190
24881, 144, 1328, 31, -103040, 31570, -17010
24901, 259, 1262, 109, -67690, 5320, -63350
24921, 298, 1200, 194, 10850, -50540, -97300
24941, 268, 1123, 216, 50120, -54460, -87780
24961, 133, 1053, 213, 21420, -31150, -55440
24981, 46, 966, 165, -22050, 12600, -26390
25001, 61, 869, 204, -59990, 26180, -28210
25021, 150, 688, 177, -59360, 6020, -74970
25041, 188, 537, 151, -70280, -31570, -120330
25061, 175, 438, 74, -96740, -31360, -130340
25081, 58, 389, 43, -114380, -6440, -95620
25101, -53, 371, 72, -87290, 37380, -31780
25121, -134, 312, 106, -16590, 61810, 16240
25141, -42, 312, 131, 13440, 49630, 20300
25161, 112, 334, 146, 17150, 11200, -27300
25181, 180, 368, 185, 27090, -37030, -71050
25201, 114, 401, 191, 47600, -35280, -44520
25221, -1, 426, 111, 51450, 7280, 30800
25241, -53, 458, 54, -3990, 45920, 90230
25261, -30, 549, -23, -36610, 53060, 95690
25281, -29, 696, 9, -13860, 23240, 86100
25301, -25, 767, 114, 110810, 18410, 98000
25321, 53, 820, 194, 132860, -2380, 75670
25341, 209, 945, 192, 127680, -40670, 36400
25361, 274, 1090, 193, 97090, -40880, 33880
25381, 181, 1142, 131, 53130, 5950, 86380
25401, 34, 1130, 114, 21910, 54110, 140210
25421, -9, 1119, 112, -1330, 64820, 125440
25441, 174, 1221, 72, -31710, 910, 32480
25461, 372, 1294, -33, -54740, -72940, -47390
25481, 421, 1359, -50, -34790, -57540, -24220
25501, 322, 1438, 21, 35840, 9240, 53060
25521, 208, 1411, 30, 68740, 35280, 104790
25541, 223, 1493, 92, 45780, 31220, 78330
25561, 396, 1578, 37, 43470, -31360, 7910
25581, 380, 1620, 69, 36400, -45360, -4620
25601, 310, 1593, 44, 5600, 11270, 21560
25621, 314, 1573, 8, -21140, 4130, 14840
25641, 338, 1563, 56, -14070, -3850, -6790
25661, 335, 1510, 47, 5880, -8330, -13720
25681, 204, 1438, 74, -8820, 9520, 1610
25701, 193, 1373, 112, -23030, 33320, -8540
25721, 311, 1322, 81, -36820, -14560, -62790
25741, 372, 1297, 78, -65380, -34930, -102130
25761, 339, 1184, 42, -58730, -23170, -84630
25781, 174, 1123, 94, -35210, 18410, -31850
25801, 102, 1069, 115, -24150, 49560, -7560
25821, 112, 1008, 141, -14350, 19810, -35700
25841, 143, 993, 173, -11900, -6650, -68670
25861, 111, 889, 227, 1190, -10500, -74200
25881, 15, 724, 230, 3220, -3850, -58870
25901, -66, 607, 249, -37380, 17570, -53970
25921, 38, 510, 203, -87920, 7490, -94780
25941, 163, 437, 142, -117950, -39200, -149730
25961, 215, 333, 55, -140070, -57330, -157710
25981, 159, 287, 8, -134680, -17220, -103110
26001, 1, 243, 48, -69510, 32900, -20510
26021, -91, 224, 148, 16100, 64890, 43260
26041, -46, 249, 193, 71610, 38640, 46130
26061, 11, 289, 209, 73500, -11270, 21070
26081, 75, 375, 162, 28070, -14840, 13160
26101, 47, 443, 134, 3290, -8260, 23940
26121, -11, 506, 58, 1470, 7980, 58660
26141, 0, 571, 77, -7140, 27510, 76720
26161, 111, 609, 77, 31710, -3220, 58730
26181, 179, 748, 155, 81620, -31360, 49420
26201, 152, 803, 140, 116970, -33880, 70980
26221, 6, 876, 118, 111580, -5320, 117320
26241, -41, 996, 85, 72310, 41230, 144970
26261, -1, 1065, 110, 61740, 38990, 120750
26281, 155, 1115, 222, 84140, -70, 58310
26301, 393, 1210, 111, 76580, -52850, -31360
26321, 537, 1379, -27, -3570, -103810, -93730
26341, 444, 1514, -89, -56350, -48650, -54110
26361, 259, 1611, -19, -11270, 55580, 73710
26381, 198, 1710, 44, 51030, 114030, 158970
26401, 315, 1839, -1, 72730, 37380, 109200
26421, 296, 1817, 55, 68110, -33180, 49560
26441, 248, 1822, 104, 98280, -12950, 56350
26461, 227, 1735, 169, 111440, 5810, 59990
26481, 284, 1650, 152, 71400, -4480, 24360
26501, 297, 1558, 83, -5040, -19600, -24570
26521, 284, 1436, -30, -92750, -12880, -48930
26541, 262, 1341, -54, -151200, 3360, -54320
26561, 305, 1236, -107, -154840, 18620, -64050
26581, 346, 1238, -91, -115570, -4060, -75670
26601, 280, 1209, -23, -33390, -8960, -58380
26621, 169, 1222, 125, 52360, 18340, -2660
26641, 118, 1203, 174, 114380, 39620, 28070
26661, 56, 1168, 236, 116060, 17010, 23450
26681, 75, 1090, 226, 59570, 9450, -4900
26701, 166, 1039, 158, -30730, -630, -63560
26721, 207, 923, 66, -114240, -21840, -126420
26741, 163, 850, 27, -143570, -22750, -133700
26761, 119, 747, -14, -143850, 13580, -103950
26781, 134, 683, -18, -138320, 33040, -90370
26801, 199, 619, 6, -100520, 14420, -105630
26821, 167, 617, 91, -13510, -16870, -101010
26841, 9, 640, 153, 72940, -7980, -47110
26861, -218, 597, 234, 126000, 35910, 36540
26881, -327, 496, 295, 114590, 84420, 90300
26901, -153, 493, 294, 78540, 53060, 42000
26921, -4, 475, 281, 33110, -29610, -63770
26941, 50, 401, 288, -3500, -64050, -114310
26961, 67, 371, 194, -30100, -44100, -98350
26981, 35, 327, 105, -79870, -15470, -60060
27001, -14, 315, 52, -106260, 10850, -12530
27021, -29, 367, -4, -106190, 35770, 27860
27041, -42, 464, -85, -82810, 34650, 53060
27061, -137, 573, -22, -31220, 22190, 84210
27081, -151, 606, 78, 31710, 42560, 124040
27101, -24, 655, 200, 104580, 28770, 128730
27121, 161, 739, 183, 165060, -39480, 25830
27141, 232, 903, 110, 54390, -62720, 29400
27161, 131, 1043, 19, -18200, 25270, 86800
27181, -12, 1072, -1, -14070, 79940, 142730
27201, -62, 1141, 33, 18620, 72380, 138670
27221, 124, 1186, 52, 55650, -8820, 52430
27241, 332, 1321, 71, 71610, -95830, -40320
27261, 459, 1414, 19, 58940, -95270, -48510
27281, 341, 1463, 71, 65940, -14980, 41230
27301, 192, 1470, 254, 101010, 65520, 119280
27321, 308, 1484, 210, 91140, 6440, 77700
27341, 380, 1493, 80, -9100, -59570, 25550
27361, 264, 1521, 7, -106400, 19320, 38080
27381, 202, 1493, -2, -122290, 59850, 52500
27401, 250, 1473, -108, -96250, 22610, 26390
27421, 245, 1472, -99, -73780, 140, 2870
27441, 248, 1446, -57, -25690, 10920, -770
27461, 276, 1434, 63, 62440, -10430, -1750
27481, 302, 1439, 137, 107170, -24780, -4340
27501, 288, 1400, 160, 80150, -17430, -4900
27521, 215, 1372, 124, 16170, 6650, 560
27541, 132, 1329, 141, -18480, 34510, 3010
27561, 224, 1295, 120, -33530, 22050, -32970
27581, 320, 1246, 108, -48440, -21490, -80570
27601, 346, 1141, 75, -58170, -24150, -82950
27621, 307, 1107, 83, -56630, -6510, -53340
27641, 221, 1102, 89, -28770, 15610, -16800
27661, 98, 1056, 139, -6720, 33250, 14910
27681, 52, 997, 132, -4060, 35560, 9520
27701, 17, 948, 147, -17990, 12530, -17150
27721, 74, 894, 165, -28980, 8680, -49560
27741, 121, 834, 191, -29400, -18410, -81970
27761, 122, 741, 168, -40810, -8260, -88200
27781, 144, 676, 120, -77560, -2030, -90580
27801, 173, 601, 60, -100240, -9520, -97930
27821, 154, 529, 52, -88900, -1120, -85260
27841, 51, 498, 87, -28980, 11620, -43820
27861, -86, 439, 118, 25060, 30030, 8820
27881, -132, 427, 178, 31010, 46410, 29050
27901, -4, 402, 215, 36050, 16870, -6790
27921, 59, 402, 240, 51310, -37380, -41020
27941, -26, 369, 244, 59290, -35350, -7140
27961, -145, 364, 181, 20370, 15330, 49140
27981, -100, 415, 100, -54530, 40110, 55860
28001, 83, 548, 29, -87570, 11830, 10220
28021, 225, 691, 47, -34930, -44940, -13370
28041, 218, 787, 116, 54670, -38640, 23590
28061, 102, 885, 186, 104930, -5530, 90650
28081, 196, 1028, 256, 106680, 37800, 118930
28101, 343, 1106, 215, 127400, -16590, 70770
28121, 267, 1120, 295, 123900, -52780, 58450
28141, 106, 1075, 203, 87150, 17220, 112070
28161, -52, 951, 177, 13020, 57330, 158480
28181, -32, 934, 87, -43610, 70280, 143150
28201, 81, 963, 9, -73850, 19880, 75530
28221, 197, 996, 6, -85540, -19670, 10010
28241, 326, 1013, -31, -55300, -39900, -26600
28261, 366, 1068, 6, -14770, -52360, -31010
28281, 328, 1096, 11, 28350, -28420, 490
28301, 218, 1097, 113, 68390, -7000, 52850
28321, 258, 1189, 270, 107450, 19880, 82320
28341, 436, 1155, 181, 136780, -23520, 35560
28361, 485, 1250, 114, 75390, -106680, -28700
28381, 470, 1325, -30, -59780, -52360, -32620
28401, 401, 1372, -71, -120540, 7630, 1610
28421, 370, 1451, -48, -90300, 43750, 39340
28441, 377, 1459, -21, -4480, 32550, 43260
28461, 340, 1489, 89, 68320, -5460, 46410
28481, 276, 1455, 145, 122850, 3290, 58310
28501, 205, 1441, 218, 123410, 3500, 69720
28521, 207, 1404, 161, 66150, 17360, 40880
28541, 267, 1379, 94, -26530, 2730, -12390
28561, 335, 1323, -8, -104720, -14000, -70490
28581, 386, 1283, -10, -154490, -25130, -100870
28601, 465, 1270, -42, -128940, -21770, -109270
28621, 406, 1266, 63, -63210, -34230, -89810
28641, 317, 1184, 145, 9590, -5810, -41860
28661, 306, 1178, 252, 48650, 17570, -8120
28681, 361, 1122, 224, 52290, 2660, -32480
28701, 273, 1081, 254, 32830, -42420, -55020
28721, 133, 1011, 183, -4900, -6230, -34440
28741, 97, 929, 141, -76020, 47530, -19600
28761, 235, 866, 68, -136990, 45920, -64960
28781, 359, 816, 35, -144130, -6720, -137970
28801, 350, 760, 88, -108220, -49420, -158480
28821, 172, 731, 120, -23030, -21770, -97720
28841, -22, 694, 195, 30660, 38150, 280
28861, -82, 646, 238, 47390, 85400, 53060
28881, -9, 653, 298, 58590, 55510, 26530
28901, 66, 633, 301, 58240, -2170, -42560
28921, 66, 592, 287, 29330, -29190, -77840
28941, 25, 546, 234, -13930, -10290, -68810
28961, 21, 476, 193, -69510, 14210, -37940
28981, 41, 397, 156, -68320, 5180, -35070
29001, 29, 337, 99, -68390, -1610, -12390
29021, -12, 348, 56, -72800, 18620, 20020
29041, -52, 365, -25, -69790, 26740, 48090
29061, -95, 438, -15, -41930, 34440, 66150
29081, -40, 486, 25, 29750, 8890, 62020
29101, 74, 593, 145, 116410, -40040, 43680
29121, 167, 599, 204, 156520, -72030, 39760
29141, 221, 615, 265, 142940, -70280, 51380
29161, 202, 647, 188, 104790, -47670, 91210
29181, 53, 789, 214, 51100, 26530, 151760
29201, 68, 942, 89, 26670, 38570, 147000
29221, 109, 1101, 62, 25480, 3710, 103460
29241, 180, 1166, 19, 19250, -7770, 59220
29261, 281, 1196, 78, 43470, -27090, 23240
29281, 401, 1338, 152, 100660, -50890, 4970
29301, 497, 1422, 151, 119840, -71750, 210
29321, 436, 1399, 161, 77350, -47460, 30310
29341, 312, 1342, 46, 16170, 8890, 74130
29361, 204, 1392, -36, -41160, 37240, 98070
29381, 128, 1431, 15, -44100, 71680, 83020
29401, 325, 1504, 4, -21350, 17710, -6370
29421, 547, 1574, -34, -5250, -87430, -116130
29441, 634, 1624, -22, 7210, -93870, -122220
29461, 474, 1595, 35, 53690, -17850, -15890
29481, 256, 1542, 130, 81200, 65870, 93030
29501, 157, 1436, 126, 57750, 79590, 104440
29521, 217, 1365, 49, -6860, 18760, 20370
29541, 286, 1341, 3, -71120, -11550, -60340
29561, 310, 1280, -48, -100730, -7350, -86240
29581, 328, 1266, -9, -92400, 13580, -86940
29601, 383, 1236, -6, -47530, 1680, -87430
29621, 348, 1220, 53, -2660, -4550, -67060
29641, 242, 1180, 82, 24570, 11340, -24220
29661, 98, 1124, 143, 39830, 36260, 11410
29681, 63, 1071, 212, 35560, 41160, 8120
29701, 170, 1006, 211, 840, 11200, -51450
29721, 269, 948, 114, -68810, -33600, -120890
29741, 245, 874, -17, -127750, -40250, -128380
29761, 60, 816, 10, -123900, 11270, -61530
29781, -71, 783, 96, -50120, 70910, 6440
29801, -66, 755, 152, 21630, 52990, 4480
29821, 15, 728, 203, 33740, -3990, -51940
29841, 68, 684, 206, 21560, -36820, -88270
29861, 22, 652, 238, 7070, -30310, -74760
29881, -55, 586, 261, 1330, 2730, -43820
29901, -31, 482, 219, -16590, 12250, -36890
29921, 70, 439, 167, -60900, -10150, -68740
29941, 152, 396, 123, -81060, -33320, -92470
29961, 87, 378, 163, -39130, -33950, -57680
29981, -94, 380, 159, 20580, 9800, 30450
30001, -211, 364, 164, 22960, 60830, 101640
30021, -167, 399, 91, -4410, 52080, 91070
30041, -62, 474, 116, -8470, 3220, 46200
30061, 27, 551, 138, 20790, -21910, 23940
30081, 77, 619, 134, 40040, -26600, 32620
30101, 81, 655, 131, 33740, -18620, 51730
30121, 106, 641, 164, 33110, -7700, 72030
30141, 138, 709, 81, 42980, -19040, 79730
30161, 36, 782, -21, 13020, -32340, 92610
30181, -95, 809, 62, -17570, 8400, 142520
30201, 50, 908, 102, 20510, 28070, 156310
30221, 262, 1096, 135, 96460, -63910, 91490
30241, 398, 1220, 167, 110040, -118510, 15400
30261, 478, 1209, 88, 62020, -108080, -18760
30281, 421, 1275, 83, 7350, -76370, 9870
30301, 359, 1407, 39, 420, -19180, 65590
30321, 254, 1405, 91, 24080, 5810, 103600
30341, 211, 1293, 121, 49840, 18480, 106750
30361, 365, 1346, 64, 35140, -10850, 54390
30381, 497, 1462, 33, -13510, -52500, -24010
30401, 535, 1515, 16, -26530, -58940, -60550
30421, 448, 1540, 19, -2170, -34860, -35630
30441, 403, 1546, 8, 560, 10990, 9170
30461, 429, 1551, 66, 1470, 20650, 15610
30481, 451, 1509, 83, 28350, 630, -4410
30501, 332, 1441, 137, 51940, -11970, -5180
30521, 244, 1356, 77, 33320, 20790, 19180
30541, 213, 1315, 38, -18900, 37730, 18130
30561, 248, 1282, -12, -65520, 32340, -18410
30581, 296, 1264, 40, -67340, 17290, -55440
30601, 334, 1205, 56, -36400, 6090, -75950
30621, 293, 1181, 110, -5460, 490, -80500
30641, 250, 1145, 88, -4760, 14560, -68250
30661, 150, 1108, 127, -7630, 22960, -56350
30681, 100, 1066, 134, -1190, 31080, -40670
30701, 83, 1020, 145, -560, 35070, -43330
30721, 153, 994, 140, -23380, 21490, -67550
30741, 188, 935, 129, -41230, 5740, -97860
30761, 97, 864, 105, -45360, -5950, -101290
30781, -8, 793, 102, -41090, 8890, -67620
30801, -53, 771, 83, -43120, 35630, -41650
30821, -3, 758, 142, -20160, 9800, -70490
30841, 111, 735, 180, 15960, -29680, -98910
30861, 131, 702, 239, 48020, -45710, -82530
30881, 25, 597, 261, 46270, -13230, -30590
30901, -123, 521, 252, -140, 32970, 9450
30921, -134, 472, 193, -50470, 35980, -7000
30941, -22, 452, 175, -64120, 140, -54460
30961, 83, 400, 182, -37100, -34650, -71680
30981, 65, 349, 113, -24780, -25130, -30310
31001, -86, 309, 104, -40390, 27860, 42490
31021, -136, 341, 48, -50050, 51100, 73640
31041, -93, 433, -11, -38150, 25970, 57260
31061, -38, 544, 10, 8750, -4550, 50680
31081, -3, 617, 46, 64050, -10920, 60550
31101, 13, 709, 124, 98350, -17220, 74060
31121, 54, 802, 164, 121450, -18130, 81200
31141, 86, 887, 194, 119630, -27860, 81900
31161, 36, 902, 178, 106190, -27090, 98560
31181, -59, 907, 141, 51940, 12320, 116200
31201, 20, 1039, 53, -13300, 12670, 84210
31221, 128, 1133, -7, -19810, -18410, 36050
31241, 170, 1124, 55, 2450, -27160, 24920
31261, 269, 1086, 72, 41510, -38500, 10640
31281, 358, 1201, 20, 33040, -67060, 1540
31301, 339, 1313, -77, 1540, -33390, 20720
31321, 198, 1346, -50, 9940, 9170, 71820
31341, 104, 1365, 32, 74270, 45010, 113820
31361, 162, 1403, 83, 114100, 17150, 93520
31381, 334, 1505, 84, 71400, -33670, 10010
31401, 477, 1544, -32, 10780, -66080, -57330
31421, 409, 1589, -22, -16870, -39620, -31850
31441, 316, 1615, -47, -4970, 31710, 31080
31461, 242, 1617, 4, 23450, 38920, 53410
31481, 208, 1568, 30, 52010, 29610, 40460
31501, 185, 1515, 91, 45430, 15260, 16450
31521, 238, 1456, 60, 9800, 12390, -21700
31541, 288, 1388, 19, -47740, 840, -61250
31561, 330, 1310, -26, -95830, 1540, -86660
31581, 345, 1215, -95, -116620, -1120, -93870
31601, 251, 1158, -126, -103390, 8050, -65310
31621, 114, 1161, -69, -54460, 50050, -5880
31641, 32, 1138, 30, 15680, 75110, 26530
31661, 53, 1086, 150, 65660, 46690, -560
31681, 155, 1038, 180, 75460, -9240, -64540
31701, 216, 1018, 145, 28630, -48580, -104580
31721, 104, 982, 106, -43540, -7770, -89110
31741, -34, 907, 52, -87430, 46480, -43890
31761, -104, 840, 85, -92820, 67270, -24010
31781, 28, 769, 49, -73780, 40180, -57890
31801, 128, 733, 80, -53060, -28980, -113820
31821, 107, 673, 63, -26670, -45500, -115710
31841, -87, 637, 114, -8190, -1890, -46550
31861, -204, 564, 114, 3780, 53970, 16380
31881, -168, 550, 186, 8120, 42280, 13160
31901, 0, 529, 159, 15960, -7000, -48160
31921, 63, 501, 134, -490, -54530, -89740
31941, -18, 466, 149, -20230, -25410, -60690
31961, -147, 404, 198, 8050, 17500, 6440
31981, -176, 378, 139, 33180, 25340, 44520
32001, -142, 415, 93, -4480, 15190, 36120
32021, -61, 428, 7, -46060, 7910, 11340
32041, -18, 508, 19, -48650, -10010, 3850
32061, 34, 580, -5, -11200, -6930, 19740
32081, -4, 661, 59, 35700, -11970, 52150
32101, -26, 672, 98, 70280, 3990, 87010
32121, -13, 757, 135, 97580, -4970, 102620
32141, -76, 782, 167, 116550, -19320, 108640
32161, -160, 748, 119, 93450, -1190, 122570
32181, -165, 822, 56, 29260, 15330, 114240
32201, -49, 862, 60, -22050, 15120, 70910
32221, 241, 1059, 80, -36400, -10080, 4900
32241, 546, 1144, -53, -59850, -93100, -121240
32261, 682, 1091, -179, -75530, -194250, -195790
32281, 497, 1342, -207, -46970, -157150, -98700
32301, 179, 1673, -52, 39970, 18970, 138740
32321, -145, 1480, 184, 171570, 189490, 352030
32341, -12, 1485, 187, 238840, 184240, 357070
32361, 269, 1586, 126, 190610, -20510, 145320
32381, 372, 1576, 145, 87360, -144690, -52570
32401, 371, 1607, 4, -10920, -92890, -88620
32421, 251, 1557, -23, -94780, -18130, -32970
32441, 271, 1563, -89, -125230, 42980, 8960
32461, 341, 1499, -179, -129850, 40040, -16380
32481, 309, 1491, -86, -91560, -11830, -43960
32501, 261, 1488, 12, -4830, -70, -20370
32521, 201, 1467, 105, 79240, 16520, 16870
32541, 169, 1417, 148, 108500, 15960, 27160
32561, 227, 1381, 161, 62790, 17570, 5600
32581, 326, 1363, 110, -7630, 2310, -46760
32601, 341, 1277, 37, -63560, -14770, -97020
32621, 238, 1183, 2, -101220, -8400, -95550
32641, 129, 1096, -13, -88760, 52570, -26600
32661, 82, 1048, 19, -49490, 43050, -31430
32681, 109, 1033, 82, -4060, 20440, -52430
32701, 117, 997, 162, 20580, 9100, -63000
32721, 95, 917, 162, 5600, 4130, -60200
32741, 33, 869, 141, -35770, 14630, -51660
32761, -13, 782, 94, -56700, 20930, -48300
32781, -34, 735, 101, -57120, 18900, -52080
32801, -29, 644, 95, -35910, 5880, -58240
32821, -41, 626, 99, -30730, 5950, -57330
32841, -55, 552, 85, -24780, 5320, -51240
32861, -34, 533, 144, -6300, 1610, -45500
32881, 40, 528, 180, 20930, -12880, -47810
32901, 8, 488, 212, 38500, -16310, -26320
32921, -93, 455, 200, 24640, 14140, 9310
32941, -167, 426, 181, -3570, 33810, 28560
32961, -132, 380, 135, -24360, 18200, 14840
32981, -26, 384, 112, -38080, -10220, -13160
33001, 52, 416, 53, -35980, -27860, -14630
33021, 6, 499, 18, -23940, -9660, 31360
33041, -91, 585, 9, 4690, 25900, 94430
33061, -144, 671, 64, 49910, 31570, 124740
33081, -115, 741, 152, 103950, 9660, 116690
33101, -13, 820, 194, 123760, -30870, 80990
33121, 12, 846, 199, 109900, -52640, 66850
33141, -20, 881, 188, 50680, -14700, 71960
33161, 29, 929, 121, 6650, -1330, 57610
33181, 57, 1028, 68, -12320, -7000, 39480
33201, 120, 1100, 66, -37310, 6580, 23170
33221, 272, 1082, 49, -40530, -25200, -23310
33241, 399, 1146, 60, 630, -79450, -51240
33261, 393, 1250, 15, 57190, -75740, -7700
33281, 126, 1399, 12, 66430, 12180, 115290
33301, -174, 1296, 99, 66010, 132510, 218120
33321, -195, 1234, 211, 76510, 112420, 187320
33341, 211, 1444, 216, 72450, -41510, -770
33361, 534, 1530, 124, -8120, -175560, -195860
33381, 679, 1427, 0, -129430, -192500, -246260
33401, 586, 1331, -48, -157500, -111300, -130830
33421, 342, 1326, -36, -75390, 10570, 70350
33441, 63, 1240, 107, 4480, 119280, 220290
33461, -42, 1092, 182, 39060, 139160, 221410
33481, 145, 1114, 208, 23380, 25760, 88900
33501, 319, 1136, 220, 11760, -76090, -46480
33521, 364, 1145, 271, 7420, -87430, -70490
33541, 181, 1046, 281, -5110, -19530, -15890
33561, 57, 1001, 206, -88760, 51660, 43610
33581, 124, 942, 179, -184730, 77700, 14210
33601, 313, 914, 116, -175560, -6930, -66850
33621, 359, 987, 227, -120050, -72730, -89880
33641, 238, 888, 144, -53620, -45360, -33810
33661, 17, 861, 304, -68040, 13650, 60200
33681, 83, 813, 359, -58520, 71190, 69650
33701, 209, 842, 421, -20720, -26810, 4760
33721, 303, 932, 343, -29260, -87290, -38080
33741, 95, 852, 376, -77560, -63210, -10150
33761, -27, 824, 393, -106330, 25970, 42420
33781, 47, 818, 445, -106960, 33810, 29050
33801, 193, 887, 518, -75670, -29470, -33740
33821, 273, 885, 488, -64260, -66080, -65590
33841, 159, 832, 475, -86590, -71330, -53270
33861, 84, 814, 567, -104720, -24990, -560
33881, 57, 763, 642, -55720, -3080, 15680
33901, 93, 730, 665, -31990, -11970, -2240
33921, 218, 754, 573, -110110, -17920, -53060
33941, 390, 727, 500, -204960, -62650, -119840
33961, 451, 657, 544, -165760, -125160, -140140
33981, 317, 619, 647, -42980, -105070, -66430
34001, 157, 719, 813, 23940, 1680, 21560
34021, 209, 900, 806, 34020, 71960, 39060
34041, 189, 871, 873, 44520, 15400, 36120
34061, 116, 811, 883, 51520, -11480, 37940
34081, -39, 712, 833, -8610, 20930, 38080
34101, -59, 738, 803, -94430, 68180, 22540
34121, 104, 715, 759, -161000, 79100, -33670
34141, 232, 546, 745, -169540, 5880, -96950
34161, 338, 530, 733, -144690, -60340, -90090
34181, 330, 527, 799, -127610, -46830, -82460
34201, 256, 467, 743, -99120, -560, -59850
34221, 104, 404, 779, -84770, 11970, -13020
34241, 179, 404, 753, -73220, 23590, 22890
34261, 230, 446, 940, -39340, -7280, 5530
34281, 265, 505, 936, 14420, -8890, -10080
34301, 116, 576, 900, 30590, -9660, -2940
34321, -98, 494, 924, 10570, 18620, 35910
34341, -104, 532, 944, 3220, 60760, 72520
34361, 61, 453, 1000, 1330, 38990, 40950
34381, 238, 462, 992, -14420, -17990, -32970
34401, 387, 512, 828, -56980, -41720, -101500
34421, 348, 452, 810, -98630, -59220, -117880
34441, 202, 386, 812, -80640, -18130, -52990
34461, 93, 425, 899, -21210, 23730, 24220
34481, 107, 454, 951, 53480, 31710, 39270
34501, 71, 440, 976, 32340, 11480, 27090
34521, 95, 368, 920, 5810, 1610, 25690
34541, 175, 356, 854, -28840, 560, -9450
34561, 200, 439, 757, -36190, 12670, -14630
34581, -26, 271, 785, 3430, 46620, 42770
34601, -115, 354, 782, 43540, 66920, 74760
34621, -172, 394, 814, 54810, 60410, 57680
34641, -102, 463, 825, 65100, 21770, 40250
34661, -5, 510, 899, 88130, -7700, 12040
34681, 77, 530, 953, 94080, -14700, -3290
34701, 182, 762, 938, 84840, -4760, -17010
34721, 115, 589, 1061, 107730, 20020, -560
34741, 45, 627, 1073, 112350, 44170, 15820
34761, -98, 528, 863, 24570, 42350, 54320
34781, -116, 648, 651, -68320, 38150, 67690
34801, -223, 492, 684, -61180, 46060, 47320
34821, -164, 461, 734, 17640, 37590, 22960
34841, -198, -535, 576, 58450, -21910, -20580
34861, 45, 371, 575, -123130, -108850, -64190
34881, 312, 560, 661, -146300, 17640, -79660
34901, 134, 284, 505, -105490, -16380, -15610
34921, -61, 355, 852, -72940, 3990, 8750
34941, 76, 388, 786, -93310, -11900, -26530
34961, 46, 490, 1014, -149520, -26250, -55370
34981, -135, 247, 1065, -146440, -12600, -27650
35001, -81, 208, 974, -98490, 7560, 17290
35021, -22, 200, 969, -89250, 1820, 2450
35041, 72, 191, 1018, -105350, -8540, -29260
35061, -3, 116, 1128, -112070, -13440, -46200
35081, 142, 136, 885, -54600, -8540, -25340
35101, 51, 97, 1050, -26390, 560, 5040
35121, -74, 95, 1051, -18410, 7280, 26530
35141, 41, 212, 1116, -12390, 6020, 21350
35161, -73, 95, 1098, -7700, 1190, 9590
35181, 19, 210, 977, 18130, 3220, 17150
35201, -10, 178, 943, 11060, 1120, 14770
35221, 45, 142, 1015, -7210, 210, 3080
35241, 10, 127, 1049, -27160, -1820, -13440
35261, -51, 157, 997, -15120, -1540, -11760
35281, 26, 116, 1022, 560, 140, 1960
35301, 19, 133, 987, -6020, -280, 8540
35321, 32, 114, 1013, -13510, 1330, 14560
35341, 8, 109, 1054, -23870, 1540, 11830
35361, 10, 125, 1015, -21140, -280, 8400
35381, 30, 111, 1000, -3080, 210, 6510
35401, 39, 106, 991, -5810, 280, 5320
35421, 24, 119, 1015, -19530, -140, 1540
35441, 3, 67, 1056, -33530, 70, -1960
35461, 8, 89, 1005, -18480, 280, -560
35481, 15, 57, 1011, -350, 210, 3010
35501, 30, 37, 1015, -5880, 350, 3990
35521, 13, 60, 1026, -3010, 420, 4200
35541, 21, 55, 1021, 1260, 630, 7350
35561, 18, 50, 1025, 2520, 210, 8190
35581, 28, 60, 1017, 2660, 70, 5670
35601, 81, 50, 1019, 2100, 350, 5320
35621, 9, 80, 1010, 1330, 5250, 3920
35641, 1, 66, 1027, -420, 24220, 7140
35661, -16, 54, 1019, 0, 18620, 15260
35681, -51, 53, 1017, 2730, 0, 24850
35701, 66, 69, 1016, 3990, -9870, 18480
35721, -10, 62, 1020, 3220, -7280, 3570
35741, -3, 59, 1024, 490, 13300, 1120
35761, -36, 53, 1021, 770, 11690, 1260
35781, 37, 63, 1020, 2870, -2310, 2240
35801, 10, 65, 1018, 4970, -16800, 3080
35821, 6, 62, 1017, 3080, -6230, 2240
35841, 22, 62, 1022, 2170, -210, 1820
35861, -208, -20, 963, -1890, 8260, 420
35881, -408, 2, 978, -14210, 50190, 22400
35901, -177, 61, 1022, -10570, 89950, -12250
35921, 88, 86, 1014, 4760, -13930, 2380
35941, 309, 312, 709, 18690, -93730, -44030
35961, 196, 88, 1024, 12320, -73360, -48510
35981, 69, 64, 1018, 0, 24150, -49280
36001, -23, 66, 1029, 1400, 14000, 40810
36021, -102, 50, 1011, -1190, 33950, 75600
36041, -143, 47, 1021, -3290, 41650, 73010
36061, 931, 642, 479, -2520, 32760, 45570
