T [ms],AccX [mg],AccY [mg],AccZ [mg],GyroX [mdps],GyroY [mdps],GyroZ [mdps]
2752, 43, 54, 1038, -19320, -38360, -11830
2772, 46, 39, 1074, -14070, -31080, -11550
2792, 30, 37, 1100, -11270, -10990, -7490
2812, 127, 86, 1110, -14210, 6580, -5950
2832, -38, 41, 957, -13510, 3990, -8540
2852, 48, 30, 981, -9870, -7350, -15960
2872, -10, 10, 1096, -910, -7700, -24010
2892, -52, 4, 1108, 4690, -19040, -33530
2912, 62, 51, 1051, 3220, -32200, -45430
2932, 97, 20, 1013, -1260, -19600, -48440
2952, 9, -17, 1024, 4200, -14210, -44170
2972, 65, 26, 973, 9100, -36680, -53480
2992, 28, 10, 981, 9870, -37730, -59220
3012, 106, 24, 925, 9310, -33600, -63140
3032, 160, 70, 1009, 15120, -28140, -62160
3052, 157, 80, 1095, 23870, -12810, -65660
3072, 97, 71, 1030, 17570, -70, -62720
3092, 94, 51, 941, 13720, -6160, -57330
3112, 170, 95, 970, 17850, -27160, -62440
3132, 576, 211, 875, 25760, -38500, -66850
3152, 266, 141, 1074, 28560, -29750, -57820
3172, 94, 171, 809, 34020, -52010, -53060
3192, 155, 136, 921, 66920, -30730, -43120
3212, 120, 105, 912, 58380, -33810, -24220
3232, 193, 194, 975, 46340, -35840, -25760
3252, 228, 208, 1037, 42000, -23730, -34090
3272, 172, 156, 997, 25760, -140, -33180
3292, 150, 207, 1018, 15190, 13860, -32410
3312, 124, 206, 948, 5740, 210, -43820
3332, 200, 215, 949, -2170, -30310, -48370
3352, 228, 219, 961, -1680, -47110, -55160
3372, 307, 221, 990, 5040, -26180, -57820
3392, 401, 188, 941, 22330, -12530, -44660
3412, 287, 202, 890, 23100, -31080, 0
3432, 277, 176, 942, -20860, -55650, 23660
3452, 234, 200, 943, -3640, -38780, 11130
3472, 246, 184, 893, 8470, -30730, 210
3492, 235, 218, 892, 19390, -4130, -23800
3512, 232, 272, 998, 30520, 38500, -49000
3532, 159, 324, 1067, 55160, 69300, -66570
3552, 140, 351, 946, 76650, 85260, -77350
3572, 52, 359, 934, 105770, 86450, -83230
3592, 39, 184, 876, 120820, 78960, -67620
3612, 29, 670, 970, 17990, 18620, -54320
3632, 175, 480, 1006, -31010, -71470, -41300
3652, 110, 547, 942, 87990, -17710, -58030
3672, 70, 487, 972, 289170, 40320, -53200
3692, 26, 711, 710, 276570, 39620, -51380
3712, -81, 774, 763, 85050, 45850, -73570
3732, 5, 623, 795, 219730, 42700, -50890
3752, 99, 554, 710, 234780, -27720, 560
3772, -4, 1189, 551, 52920, -51660, 2800
3792, -13, 801, 757, -40040, -64540, 13930
3812, 40, 783, 909, 16940, -39130, -8540
3832, 60, 712, 767, 62930, 4900, -59220
3852, -4, 957, 525, 42840, 12180, -71680
3872, 57, 708, 506, -3710, -1610, -62440
3892, 64, 858, 666, -17920, -53410, -14210
3912, 91, 789, 755, -23660, -101500, 31990
3932, 33, 828, 795, -3710, -95830, 41790
3952, -9, 888, 703, 12180, -57120, 22260
3972, 79, 444, 534, 29400, -6580, -13020
3992, 165, 52, 505, 35770, 45220, -58940
4012, 97, 473, 633, 4900, 36050, -68110
4032, 120, 737, 668, -31080, -26250, -38080
4052, 149, 864, 818, -24500, -62580, 8750
4072, 94, 780, 811, -31570, -65170, 9660
4092, 1, 870, 733, -2240, -52080, 20930
4112, -11, 815, 640, 17710, -15680, 1890
4132, -7, 745, 595, 37730, 18340, -16100
4152, 0, 652, 669, 37310, 30660, -26250
4172, 63, 793, 675, 30730, 24500, -20790
4192, 81, 687, 650, 10360, 4690, -12600
4212, 15, 888, 633, -8050, -23520, 6930
4232, 74, 570, 634, -12810, -29960, 27440
4252, 97, 853, 713, -24920, -25760, 18830
4272, 111, 602, 725, -12250, -20160, 19390
4292, 62, 924, 786, -560, -12250, 7770
4312, 97, 753, 563, 12880, -10850, -770
4332, 28, 845, 603, 14840, 980, -17990
4352, 84, 530, 638, 37660, 27300, -22610
4372, 129, 787, 581, 18130, 40810, -44520
4392, 10, 753, 498, -3150, 27930, -29470
4412, 30, 723, 636, -10640, 24150, -16310
4432, 20, 850, 728, -25900, -700, -7630
4452, -24, 728, 664, -12390, -26600, 22540
4472, 19, 739, 637, -70, -14560, 19110
4492, 23, 825, 617, -8050, 6440, -4550
4512, 61, 559, 618, 13300, 23100, -5320
4532, 56, 734, 573, -4690, 25620, -4620
4552, 21, 837, 825, -11340, 26320, -23590
4572, 83, 731, 833, 27370, 24780, 23170
4592, -89, 934, 739, 58870, 19810, 12460
4612, -35, 981, 617, 132860, 23100, 12880
4632, 21, 856, 564, 345870, 36400, -6860
4652, 2, 832, 437, 77700, 25270, -31010
4672, 13, 603, 510, 18130, 21070, -40950
4692, 2, 867, 449, 5530, 2660, -23940
4712, 2, 799, 511, -13860, -23100, 10430
4732, -8, 918, 501, -18340, -20370, 23800
4752, 6, 849, 517, -12880, -10290, 8540
4772, -5, 787, 500, -7280, -1470, 9520
4792, 3, 819, 499, -4410, 5040, -980
4812, -13, 879, 503, -1260, 2660, -1750
4832, -37, 927, 511, -700, 3150, -1470
4852, -53, 897, 521, 11760, 10010, -7350
4872, -24, 769, 456, 16520, 15680, -12600
4892, -55, 905, 541, -9100, 5950, -7840
4912, -52, 754, 537, 5600, 14490, -7350
4932, -18, 958, 566, -3710, 8330, 3990
4952, 3, 882, 563, -8190, -5670, 7560
4972, -9, 823, 530, -12390, -6650, 23870
4992, 2, 821, 510, -7840, -6160, 19250
5012, -7, 824, 519, -9170, -1750, 10710
5032, 25, 860, 550, -16240, 350, 11060
5052, 11, 867, 583, -13860, -2240, 15890
5072, 3, 844, 561, -11830, -3920, 16450
5092, 1, 845, 558, -14630, -6510, 11970
5112, -8, 849, 573, -10850, -3360, 5530
5132, 1, 851, 584, -5390, 490, 4690
5152, 34, 869, 601, -4970, 840, 7980
5172, 25, 867, 604, -5180, 280, 13510
5192, 56, 878, 594, -560, 1610, 11410
5212, 47, 852, 570, 6230, 2240, 9590
5232, 37, 859, 561, 9870, 5040, 13930
5252, 16, 864, 574, 17080, 7210, 18200
5272, 46, 896, 584, 25690, 9940, 16030
5292, 26, 866, 561, 26460, 5670, 13440
5312, 27, 869, 518, 36820, 1470, 13720
5332, 31, 931, 446, 60200, 5810, -280
5352, 38, 931, 418, 125160, 15120, -3500
5372, 51, 981, 338, 226310, 18620, 12180
5392, -22, 1057, 286, 265650, 19460, 11970
5412, 52, 1347, 161, 145390, 9660, 1540
5432, -85, 1204, 115, -68040, -49560, -68320
5452, -109, 717, 117, -181580, -123130, 12880
5472, -57, 511, 66, -154770, -235830, 179760
5492, -64, 479, 50, -1820, -367360, 179200
5512, -85, 651, 65, 149310, -471380, 86870
5532, -108, 937, 62, 200970, -550130, -73220
5552, -132, 1214, 1, 67830, -611730, -251370
5572, -149, 1420, -123, -142450, -656950, -362250
5592, -147, 1589, -125, -173460, -689290, -348460
5612, -130, 1534, 39, 101710, -689570, -241920
5632, -149, 1208, 55, 297780, -686210, -134120
5652, -190, 913, -36, 96110, -726460, -2450
5672, -182, 723, -98, -188370, -780780, 140490
5692, -147, 749, -119, -303030, -818650, 174510
5712, -131, 988, -117, -268240, -823900, 47320
5732, -113, 1281, -111, -182910, -795830, -181720
5752, -73, 1367, -98, -107660, -750050, -351260
5772, -60, 1249, -25, -9240, -707560, -275940
5792, -76, 1096, 30, 150430, -679140, 29120
5812, -80, 962, 14, 209650, -652680, 286160
5832, -47, 855, -40, 57400, -614880, 323120
5852, -1, 783, -89, -169120, -565530, 188860
5872, 22, 768, -98, -291620, -498680, -9870
5892, 30, 915, -49, -211610, -412440, -174440
5912, 46, 1125, 38, 37730, -329910, -222460
5932, 33, 1220, 82, 244230, -274610, -140280
5952, 6, 1142, 26, 214060, -237790, 21700
5972, 29, 940, -62, -6930, -197330, 164290
5992, 46, 803, -73, -217560, -136780, 162190
6012, 43, 906, -11, -224140, -45570, -1820
6032, 52, 1029, 51, -34580, 53900, -151550
6052, 38, 1063, 54, 96670, 124390, -146440
6072, 18, 1043, -5, 38010, 166600, -20510
6092, 5, 982, -89, -200550, 255290, 68250
6112, -30, 1083, -63, -96460, 340480, -83300
6132, -37, 1246, 37, 101290, 419440, -177730
6152, -16, 1199, 57, 85050, 457520, -134680
6172, -21, 1036, -10, -107450, 470330, -30590
6192, -30, 897, -76, -214830, 485030, 12670
6212, -57, 942, -78, -92470, 518420, -27300
6232, -80, 1115, -13, 161630, 552020, -36610
6252, -81, 1162, 50, 261240, 567000, -20020
6272, -69, 1097, 56, 142100, 558320, -18970
6292, -53, 999, 11, -36050, 537740, -41090
6312, -45, 992, -4, -87710, 519960, -58520
6332, -50, 1067, 20, 23310, 495180, 17920
6352, -57, 1069, 63, 145460, 461300, 142030
6372, -54, 988, 77, 147560, 423290, 208600
6392, -39, 896, 69, 49700, 385490, 150780
6412, -25, 884, 63, -32480, 346150, 22610
6432, -13, 947, 82, -32900, 300790, -59010
6452, -9, 1025, 104, 9520, 242270, -29470
6472, -17, 1008, 107, 19530, 172970, 70420
6492, -21, 917, 89, -27230, 107800, 131250
6512, -16, 847, 78, -74970, 53200, 87850
6532, -8, 860, 80, -73640, 5250, -24360
6552, -4, 954, 94, -45290, -42910, -115640
6572, -7, 1047, 93, -32060, -95760, -132230
6592, -17, 1097, 82, -46830, -153930, -72730
6612, -27, 1101, 59, -71960, -207130, -4270
6632, -28, 1081, 47, -89810, -244370, 5460
6652, -23, 1081, 48, -90510, -266140, -49840
6672, -17, 1090, 52, -80780, -284130, -97300
6692, -19, 1112, 44, -77280, -305340, -87010
6712, -29, 1149, 33, -80570, -327110, -32130
6732, -35, 1202, 24, -75600, -341600, 12530
6752, -35, 1245, 27, -63770, -344680, 11480
6772, -23, 1229, 30, -69930, -337400, -30100
6792, -12, 1115, 23, -95200, -327040, -48370
6812, -6, 1006, 20, -107100, -319130, -14070
6832, -7, 948, 20, -90300, -312690, 39620
6852, -4, 993, 23, -60550, -302120, 60620
6872, 1, 1081, 28, -40460, -284130, 26180
6892, 10, 1108, 25, -49350, -259630, -30240
6912, 19, 1023, 20, -75950, -232120, -49350
6932, 22, 917, 27, -78820, -206990, -11200
6952, 26, 854, 28, -48860, -186830, 44380
6972, 22, 852, 30, -23800, -165410, 64190
6992, 28, 902, 29, -21840, -137690, 28280
7012, 32, 962, 28, -35560, -103740, -43540
7032, 34, 990, 27, -45640, -67130, -98560
7052, 33, 1013, 32, -33670, -33880, -95060
7072, 27, 1044, 31, -980, -7420, -44240
7092, 17, 1082, 29, 25340, 17920, 5040
7112, 9, 1107, 26, 26880, 50120, 5320
7132, 14, 1090, 30, 12880, 89250, -54460
7152, 20, 1037, 40, 5740, 127190, -111510
7172, 22, 971, 37, 8190, 154210, -102270
7192, 14, 946, 28, 16520, 169260, -44240
7212, 3, 986, 20, 42210, 178990, 7350
7232, -8, 1069, 23, 80430, 194670, 2450
7252, -10, 1129, 44, 115570, 217980, -51380
7272, -1, 1101, 53, 120820, 239540, -104720
7292, 1, 1043, 47, 93800, 247940, -101850
7312, -1, 982, 35, 67620, 242900, -36050
7332, -11, 986, 18, 72030, 235550, 32340
7352, -29, 1207, 50, 116900, 227360, 90580
7372, -50, 1344, 94, 216300, 206990, 133490
7392, -22, 1327, 110, 227080, 186760, 81970
7412, 9, 1089, 79, 89740, 162190, -39620
7432, 0, 897, 37, -88620, 130200, -75600
7452, 4, 801, 41, -83650, 83790, 57330
7472, 21, 763, 79, 84210, 41090, 166810
7492, 32, 735, 89, 197050, 22680, 138180
7512, 35, 700, 63, 117670, 25200, 32480
7532, 24, 737, 18, -46830, 36260, -57960
7552, 4, 930, -5, -119700, 42210, -101360
7572, -8, 1290, 65, 1190, 40880, -122920
7592, -9, 1466, 130, 194810, 39060, -126140
7612, 0, 1254, 45, 159040, 30800, -82180
7632, 13, 944, -20, -109270, 16730, -10780
7652, 24, 830, -1, -241360, 14840, 30520
7672, 17, 962, 35, -102550, 29050, 31290
7692, -10, 1230, 73, 65450, 47950, 11480
7712, 2, 1372, 62, 74410, 69860, -55230
7732, 2, 1263, 21, -67270, 86520, -144900
7752, -30, 1219, 10, -200970, 89460, -108780
7772, -17, 1121, 87, -161490, 74130, 65310
7792, 10, 917, 100, -21280, 55090, 164570
7812, 0, 789, 45, -59430, 35770, 119700
7832, -6, 808, -24, -237720, 6510, 97860
7852, -12, 1092, 18, -309820, -22610, 44800
7872, -6, 1608, 80, -185290, -17990, -171430
7892, -1, 1624, 33, -58940, 2240, -303590
7912, -13, 1145, -62, -168350, 11130, -158060
7932, 21, 775, -86, -346430, 54810, 240030
7952, 46, 673, -44, -173460, 131740, 90720
7972, 21, 862, -19, -44450, 230230, -117180
7992, -5, 1158, -2, -19810, 324170, -238630
8012, 4, 1227, 14, -39760, 394660, -232260
8032, -2, 993, 1, -75880, 430640, -42980
8052, -36, 777, -40, -95270, 439530, 204120
8072, -48, 676, -55, -19390, 445340, 303730
8092, -46, 771, 9, 180040, 459900, 211050
8112, -39, 968, 91, 297430, 458990, 106960
8132, -61, 1227, 121, 189700, 429380, 92540
8152, -87, 1462, 67, -20300, 371070, 103320
8172, -86, 1466, 98, -91210, 292950, 136430
8192, -120, 1393, 130, -28210, 197960, 282590
8212, -127, 1332, 101, -32690, 84420, 416570
8232, -81, 1272, 124, -74760, -19250, 316750
8252, -95, 1411, 103, -106960, -119770, 139160
8272, -127, 1482, 78, -110950, -236740, 150780
8292, -137, 1329, 110, -26670, -352170, 257180
8312, -162, 1214, 80, 16170, -457660, 317870
8332, -155, 1096, 24, -41860, -553070, 275100
8352, -142, 1003, -5, -67550, -630350, 149940
8372, -134, 912, -13, -7210, -696990, 61460
8392, -134, 864, -26, 70700, -759290, 54670
8412, -136, 843, -38, 96670, -809060, 75460
8432, -125, 797, -53, 48580, -832510, 54530
8452, -111, 751, -84, -52990, -830620, 17360
8472, -83, 743, -111, -133420, -806400, -8610
8492, -46, 775, -103, -138250, -758870, -59780
8512, -5, 861, -82, -88620, -690340, -112770
8532, 20, 1013, -63, -34580, -610190, -90020
8552, 9, 1277, -63, -1750, -518770, 12250
8572, 5, 1463, -67, 9380, -409220, 111720
8592, 39, 1349, -54, 5810, -280070, 134400
8612, 43, 1253, -51, 2870, -143010, 153370
8632, 9, 1370, -71, 14840, -9520, 234850
8652, 10, 1323, -68, 33740, 128870, 271180
8672, -16, 1478, -71, 45500, 275520, 208530
8692, -82, 1699, -116, 19110, 412440, 207130
8712, -128, 1615, -183, -68880, 538440, 287420
8732, -136, 1274, -222, -166040, 663040, 352800
8752, -166, 1136, -242, -198520, 786030, 354900
8772, -203, 1119, -252, -194600, 904400, 299390
8792, -224, 996, -257, -212940, 1019900, 164920
8812, -258, 898, -275, -257390, 1126300, 13580
8832, -307, 838, -295, -284760, 1213660, -55440
8852, -351, 830, -279, -246260, 1274350, -62580
8872, -362, 862, -215, -120400, 1300180, -34300
8892, -336, 819, -152, 13300, 1283170, 39060
8912, -298, 728, -88, 61880, 1226400, 128520
8932, -245, 643, -16, 31220, 1136030, 183680
8952, -193, 628, 52, -16030, 1010380, 182210
8972, -156, 751, 119, -38430, 857290, 111580
8992, -143, 1034, 193, -34580, 690480, -39550
9012, -127, 1399, 231, -57190, 516740, -243950
9032, -73, 1406, 221, -159530, 330680, -396410
9052, -74, 1180, 139, -283360, 130620, -370090
9072, -84, 998, 91, -322140, -66990, -195160
9092, -175, 1455, 87, -224910, -230860, -113260
9112, -211, 1997, 51, -122080, -351120, -245840
9132, -252, 1997, -104, -188930, -457240, -434210
9152, -256, 1864, -1, -307160, -557340, -326690
9172, -247, 1259, 32, -195510, -630980, 22190
9192, -291, 1062, -102, -197260, -721770, 239260
9212, -257, 941, -183, -410970, -815990, 293440
9232, -195, 911, -129, -453320, -871220, 161560
9252, -195, 910, -123, -242410, -890120, -103250
9272, -192, 893, -135, -54320, -921830, -149310
9292, -195, 940, -102, 130130, -980560, 0
9312, -206, 980, -72, 260680, -1018080, 108920
9332, -213, 900, -126, 168560, -1023750, 92330
9352, -193, 767, -180, -101010, -1008490, 42840
9372, -144, 711, -196, -302400, -979230, 8190
9392, -91, 857, -180, -327950, -932120, -49630
9412, -55, 1263, -163, -239400, -857640, -145880
9432, -3, 1479, -118, -123760, -759920, -202300
9452, -69, 1547, -66, -4340, -644210, -81830
9472, -69, 1374, -38, 59570, -525840, 246960
9492, -30, 1167, -132, 12460, -416150, 496440
9512, 20, 1372, -98, -77000, -290080, 486570
9532, 30, 1590, -87, -49980, -154910, 228410
9552, -23, 1807, -49, 44100, -3990, 70560
9572, -111, 1553, -54, 103250, 127750, 209860
9592, -82, 1324, -173, -20020, 229320, 479360
9612, -40, 1094, -88, -144760, 326690, 512190
9632, -67, 1283, -39, -71610, 442050, 293160
9652, -66, 1201, -67, -15680, 545370, 146510
9672, -76, 886, -113, -77140, 611450, 172340
9692, -80, 747, -145, -238630, 658280, 250460
9712, -101, 696, -119, -290220, 692370, 229950
9732, -106, 717, -69, -160440, 728770, 157710
9752, -107, 695, -41, 26040, 757540, 108150
9772, -110, 633, -31, 108920, 767830, 102900
9792, -109, 655, -23, 9800, 753760, 90790
9812, -104, 814, 7, 37800, 710150, 86940
9832, -101, 1100, 56, 118790, 639870, 141330
9852, -121, 1385, 94, 147280, 555870, 231350
9872, -97, 1271, 101, 34090, 471800, 255570
9892, -77, 1257, 90, -136990, 375270, 228060
9912, -81, 1360, 101, -192850, 271670, 232540
9932, -93, 1259, 81, -141960, 169610, 275030
9952, -117, 1543, 96, -85400, 72520, 299810
9972, -126, 1799, 73, -125650, -17010, 243600
9992, -112, 1826, 18, -172830, -93520, 137480
10012, -105, 1530, 38, -166180, -156240, 170730
10032, -127, 1315, 45, -115710, -217910, 358260
10052, -95, 1161, 38, -73010, -271250, 437430
10072, -52, 1051, 30, -74410, -303170, 293230
10092, -24, 992, 14, -100940, -322980, 115500
10112, -9, 976, -9, -73150, -339710, 73080
10132, 4, 945, 11, 23100, -342230, 109060
10152, 5, 903, 39, 95970, -324870, 127960
10172, 14, 822, 43, 78680, -303100, 119490
10192, 18, 722, 30, -13650, -275590, 79100
10212, 19, 640, 15, -92400, -248150, 20020
10232, 21, 616, 17, -100170, -226660, -47740
10252, 23, 706, 38, -58170, -211050, -114870
10272, 23, 864, 56, -22400, -205590, -157290
10292, 15, 1015, 53, -48090, -203770, -166250
10312, 5, 1140, 19, -131110, -196140, -159320
10332, 3, 1202, -17, -192080, -178710, -166110
10352, 17, 1206, -9, -155960, -148050, -182420
10372, 16, 1111, 17, -45780, -109830, -145880
10392, -30, 1088, 66, 60550, -87850, -14000
10412, -60, 1331, 171, 148610, -110460, 69580
10432, -44, 1635, 70, -3220, -169890, -33670
10452, -10, 1507, -151, -423080, -223230, -168770
10472, -34, 1242, -131, -538020, -209230, -149590
10492, -35, 1447, 67, -79030, -152670, -27930
10512, -33, 1544, 145, 225470, -125160, -19390
10532, -74, 1358, 31, -5460, -149870, 19180
10552, -56, 1106, -67, -333270, -201600, 159460
10572, -12, 1060, -99, -444290, -227080, 152390
10592, 1, 1140, -75, -312550, -199920, -24430
10612, -6, 1364, 40, -26390, -141470, -133770
10632, -34, 1558, 142, 170590, -107940, -66500
10652, -54, 1401, 17, 23380, -124390, 67550
10672, -32, 1057, -94, -312830, -156730, 173390
10692, 10, 839, -71, -375900, -160160, 215880
10712, 19, 840, 11, -135030, -118160, 140840
10732, 27, 886, 61, 65170, -62860, -17990
10752, 36, 899, 75, 78680, -34370, -108220
10772, 26, 876, 61, -1610, -36540, -56140
10792, 15, 789, 22, -87290, -52850, 73290
10812, 29, 674, -11, -143780, -59780, 161700
10832, 38, 610, -30, -131600, -42490, 139090
10852, 23, 721, -17, -16730, -3430, 28560
10872, 10, 959, 50, 158620, 41160, -95480
10892, 15, 1160, 100, 255080, 70140, -164570
10912, 13, 1248, 55, 147210, 81270, -167860
10932, 4, 1213, -22, -59080, 87780, -118580
10952, 0, 1184, -30, -98140, 99400, -31710
10972, -14, 1123, 7, 69930, 130620, 31710
10992, -14, 1111, 53, 226240, 174580, 18270
11012, -7, 1106, 79, 264530, 197120, -24150
11032, -5, 1086, 56, 188160, 197120, -44170
11052, -9, 1132, 0, 50330, 195300, -62160
11072, -18, 1280, -27, 420, 196980, -75320
11092, -36, 1438, 24, 127610, 208110, -46340
11112, -50, 1418, 90, 304990, 223930, 33600
11132, -40, 1266, 89, 312900, 223230, 91840
11152, -23, 1156, 53, 151830, 202860, 70700
11172, -15, 1134, 23, 25200, 175280, 25620
11192, -20, 1196, 38, 42350, 153300, 22260
11212, -28, 1258, 80, 153090, 139020, 57330
11232, -36, 1241, 118, 248430, 117880, 105420
11252, -30, 1127, 108, 228340, 83090, 127890
11272, -16, 1010, 69, 98000, 37100, 99190
11292, -8, 950, 48, -20090, -11970, 44660
11312, 0, 941, 53, -24500, -53690, 8260
11332, -5, 946, 81, 66010, -91490, 17080
11352, -13, 943, 101, 154630, -132720, 60410
11372, -24, 928, 98, 159180, -175910, 90790
11392, -28, 912, 68, 78330, -220990, 77420
11412, -25, 903, 30, -25550, -267540, 30940
11432, -23, 894, 15, -85610, -308070, -20510
11452, -24, 905, 18, -71680, -337820, -49210
11472, -27, 955, 40, -140, -362600, -46620
11492, -32, 1001, 51, 66150, -387870, -28630
11512, -42, 986, 32, 58800, -414750, -3710
11532, -48, 929, -1, -21210, -441910, 40110
11552, -43, 892, -24, -105700, -463050, 89390
11572, -29, 925, -30, -131390, -470260, 102340
11592, -22, 1028, -19, -95970, -459900, 62790
11612, -22, 1182, 4, -28840, -438130, 7350
11632, -32, 1328, 16, 46410, -396970, 30100
11652, -49, 1389, 3, 28840, -382690, 131250
11672, -46, 1342, -10, 28700, -359240, 219870
11692, -25, 1250, 2, 53970, -316540, 212730
11712, 1, 1152, 6, 59360, -264530, 135870
11732, 16, 1106, 6, 46480, -212870, 83650
11752, 19, 1133, 5, 55160, -162330, 88690
11772, 10, 1235, 5, 87150, -112490, 127680
11792, -1, 1344, 5, 111720, -57540, 161980
11812, -10, 1365, 11, 111790, 3080, 158200
11832, 0, 1268, 16, 79170, 62720, 112490
11852, 9, 1164, 8, 29890, 115920, 74200
11872, 10, 1123, -1, 6720, 164990, 86730
11892, 4, 1086, -5, 18620, 211960, 137970
11912, -4, 1025, -16, 27720, 261100, 179200
11932, -9, 986, -17, 33880, 313530, 169120
11952, -14, 981, -6, 38990, 365610, 114660
11972, -17, 975, -1, 18970, 411460, 56140
11992, -20, 965, -8, -25620, 448910, 23660
12012, -26, 967, -13, -51030, 475580, 29610
12032, -34, 949, -12, -43050, 493010, 62930
12052, -40, 898, -10, -27580, 506380, 92610
12072, -41, 836, -12, -19740, 518560, 90790
12092, -44, 792, -5, -3920, 528290, 61740
12112, -46, 782, 6, 23730, 532700, 24710
12132, -49, 815, 21, 47950, 529200, -4620
12152, -45, 892, 31, 61670, 515340, -15750
12172, -47, 994, 35, 67480, 491680, -4060
12192, -52, 1100, 33, 66500, 465150, 20370
12212, -61, 1188, 35, 67760, 441350, 34860
12232, -65, 1299, 47, 84210, 417410, 38500
12252, -63, 1308, 70, 103250, 389200, 43540
12272, -52, 1233, 79, 85540, 351610, 68250
12292, -43, 1145, 78, 37940, 304080, 96320
12312, -36, 1098, 76, 9170, 251230, 126350
12332, -37, 1090, 78, 17430, 195790, 165620
12352, -43, 1168, 78, 37730, 144900, 189980
12372, -54, 1340, 76, 53620, 99260, 172690
12392, -75, 1556, 78, 64890, 56910, 115990
12412, -70, 1620, 85, 63280, 14000, 56700
12432, -59, 1440, 83, 35980, -35770, 59920
12452, -62, 1218, 78, 4270, -90370, 155400
12472, -58, 1083, 68, 2450, -145740, 262150
12492, -55, 1079, 61, 22120, -192290, 272230
12512, -50, 1166, 62, 47110, -226520, 172690
12532, -43, 1211, 67, 64050, -256760, 38080
12552, -34, 1162, 61, 58590, -291200, -22120
12572, -41, 1032, 46, 47460, -331520, 37030
12592, -44, 936, 47, 69300, -371000, 149660
12612, -44, 886, 57, 118720, -402080, 210140
12632, -41, 851, 55, 128100, -423360, 164220
12652, -37, 792, 33, 57540, -439180, 49770
12672, -32, 727, 11, -33810, -454860, -44310
12692, -30, 683, -5, -58520, -474040, -73010
12712, -28, 708, -3, 3080, -495530, -55650
12732, -30, 796, 13, 97510, -513170, -35000
12752, -38, 896, 33, 144550, -523950, -31990
12772, -42, 934, 27, 96950, -530810, -39620
12792, -42, 864, -11, -19950, -535920, -33390
12812, -33, 781, -34, -112630, -537670, -490
12832, -20, 774, -34, -108080, -530180, 33040
12852, -16, 883, -12, -25760, -506940, 25480
12872, -17, 1060, 15, 58310, -471240, -29960
12892, -14, 1180, 26, 89320, -440020, -78260
12912, -14, 1156, 13, 67270, -422800, -40810
12932, -12, 1027, 1, 38220, -406630, 80710
12952, 1, 953, 2, 38500, -373310, 177730
12972, 6, 1030, 6, 65590, -322140, 157220
12992, 5, 1230, 4, 92890, -263480, 48300
13012, -3, 1470, 0, 112770, -205030, -41300
13032, -23, 1616, 16, 139580, -149030, -32480
13052, -21, 1481, 32, 173670, -95200, 60690
13072, -9, 1273, 22, 174160, -44520, 156170
13092, -2, 1186, 0, 116970, 7770, 176610
13112, -13, 1324, -24, 65660, 65310, 126420
13132, -42, 1639, -20, 80920, 128310, 49210
13152, -70, 1819, 20, 158830, 194320, 9310
13172, -68, 1569, 20, 202090, 253190, 65520
13192, -37, 1205, -13, 110880, 295330, 160510
13212, -19, 989, -32, -22540, 327460, 189210
13232, -21, 963, -38, -60900, 364490, 158200
13252, -49, 1119, -28, -7490, 407680, 129850
13272, -88, 1442, -6, 65310, 450870, 121660
13292, -108, 1602, 1, 101220, 486010, 114170
13312, -80, 1418, -26, 40810, 508200, 84000
13332, -57, 1164, -34, -95830, 519890, 37660
13352, -51, 975, -27, -163660, 527450, 40040
13372, -49, 839, -22, -132650, 529200, 112770
13392, -46, 737, -25, -90370, 525210, 190120
13412, -44, 693, -19, -69090, 522830, 207270
13432, -40, 699, -6, -48370, 523390, 158060
13452, -42, 738, 13, -17290, 524160, 70420
13472, -36, 793, 37, 8960, 523040, -66080
13492, -27, 829, 60, 13510, 485520, -53270
13512, -20, 786, 60, -22190, 442400, 4060
13532, -17, 713, 48, -68950, 396410, 53550
13552, -15, 678, 42, -79590, 353500, 64960
13572, -10, 678, 48, -31500, 312830, 46620
13592, -6, 698, 68, 46900, 271530, 26810
13612, -2, 702, 99, 99890, 225400, 26530
13632, 0, 692, 111, 95760, 171920, 44170
13652, 0, 700, 111, 48370, 113050, 57750
13672, 0, 777, 98, -4270, 52710, 49770
13692, -6, 967, 66, -26740, -1050, 24220
13712, -44, 1327, 33, 11620, -38990, -7070
13732, -103, 1813, 53, 108150, -60550, -40600
13752, -80, 1831, 117, 169750, -86660, -52360
13772, -76, 1448, 103, 83860, -139160, 71540
13792, -84, 1092, 46, -48370, -202440, 287840
13812, -56, 946, 14, -65870, -244650, 360220
13832, -64, 1189, 8, 45500, -251510, 202300
13852, -114, 1760, 39, 186970, -245000, -69440
13872, -110, 1997, 58, 219450, -257390, -199220
13892, -111, 1828, 32, 147140, -288260, -2170
13912, -103, 1363, 53, 141820, -306810, 340760
13932, -66, 1111, 69, 183540, -303730, 417410
13952, -49, 1088, 44, 130200, -296100, 173250
13972, -36, 1181, 0, 30940, -289660, -138460
13992, -12, 1316, -23, 37940, -281540, -264950
14012, -10, 1417, 16, 190890, -273000, -152810
14032, -38, 1406, 82, 350210, -264180, 57960
14052, -53, 1290, 108, 327180, -261240, 150780
14072, -31, 1109, 50, 112070, -273070, 61600
14092, -6, 940, -8, -106960, -283640, -84420
14112, 0, 855, -30, -143150, -272020, -177030
14132, -1, 927, -12, 14210, -249620, -198030
14152, -11, 1151, 42, 220780, -240030, -167860
14172, -35, 1401, 111, 293020, -247170, -119910
14192, -41, 1373, 64, 144900, -268940, -68250
14212, -16, 1047, -26, -119980, -297150, -9380
14232, 8, 731, -42, -251790, -300580, 23030
14252, 12, 627, -8, -149030, -270970, -8400
14272, 20, 657, 35, 55860, -243390, -70700
14292, 33, 691, 71, 170030, -236250, -104930
14312, 33, 662, 76, 130270, -236740, -83790
14332, 19, 585, 55, 2380, -236390, -14070
14352, 14, 501, 28, -101080, -241150, 67130
14372, 25, 445, 7, -120750, -247310, 116760
14392, 44, 472, -1, -63140, -239470, 106120
14412, 44, 585, 3, 32690, -208250, 39130
14432, 32, 785, 27, 123900, -161700, -47460
14452, 21, 1074, 61, 183750, -117810, -114660
14472, 0, 1377, 72, 182420, -89740, -123200
14492, -20, 1459, 29, 102480, -75110, -48580
14512, -12, 1236, -1, 18130, -62650, 94150
14532, 8, 996, 23, 33040, -29820, 187670
14552, 18, 887, 45, 96390, 21070, 151760
14572, 24, 894, 60, 109480, 66010, 59990
14592, 20, 1006, 65, 80220, 95830, 8750
14612, 2, 1185, 45, 40110, 113820, 37870
14632, -38, 1432, -2, 4690, 127120, 126140
14652, -105, 1834, -43, 1890, 150570, 197820
14672, -131, 1997, 6, 64470, 193270, 178780
14692, -91, 1897, 37, 113400, 239400, 78680
14712, -85, 1667, -22, -3080, 258580, 54740
14732, -93, 1607, -81, -162260, 255640, 165620
14752, -114, 1745, -75, -171710, 264670, 274260
14772, -121, 1712, -11, -39900, 303870, 302890
14792, -86, 1476, 21, 48230, 351470, 260330
14812, -45, 1283, -7, -38290, 372120, 173040
14832, -30, 1187, -55, -199990, 368690, 109550
14852, -47, 1231, -88, -286860, 367920, 114520
14872, -91, 1476, -73, -233730, 381010, 163940
14892, -111, 1610, 10, -81200, 408100, 186130
14912, -63, 1349, 35, 29260, 434420, 125510
14932, -18, 1052, 3, -72450, 432530, 25480
14952, -7, 853, -15, -264810, 412790, -25760
14972, -5, 775, -14, -323330, 388220, 2730
14992, -9, 751, -2, -241080, 358960, 77070
15012, -10, 732, 15, -115500, 335090, 142730
15032, -10, 686, 35, -6230, 320180, 161350
15052, -8, 641, 60, 57190, 309680, 120120
15072, -5, 616, 81, 63070, 297220, 34370
15092, 9, 620, 90, 17570, 276710, -59010
15112, 17, 612, 87, -46410, 241710, -112350
15132, 12, 570, 82, -92260, 192500, -93590
15152, 4, 505, 76, -96530, 130270, -2660
15172, 5, 454, 67, -56000, 59290, 116340
15192, 10, 483, 61, 12320, -6160, 195440
15212, 8, 657, 66, 90930, -52360, 185850
15232, -15, 1014, 77, 158060, -78750, 82250
15252, -48, 1451, 88, 184240, -94290, -71540
15272, -58, 1686, 40, 135380, -109760, -193200
15292, -36, 1530, 14, 35770, -130410, -201250
15312, -49, 1391, 71, 44940, -150430, -35840
15332, -78, 1344, 100, 270830, -164220, 331310
15352, -70, 1367, 37, 146650, -169260, 142380
15372, -63, 1637, -27, 80500, -175210, -113400
15392, -88, 1997, -16, 233660, -167580, -107940
15412, -145, 1997, 40, 395360, -150150, 97580
15432, -154, 1997, 81, 372470, -146650, 223020
15452, -100, 1628, 63, 231560, -170730, 185710
15472, -50, 1341, -3, 89320, -190820, 62160
15492, -30, 1318, -45, 123620, -179690, -34300
15512, -46, 1620, -4, 353920, -155120, -33880
15532, -102, 1913, 113, 497840, -144410, 20650
15552, -118, 1854, 91, 325360, -170170, 25550
15572, -65, 1509, -16, 58590, -217980, -20300
15592, -28, 1261, -27, 40250, -232400, -40530
15612, -13, 1119, 14, 210980, -219450, -18620
15632, -19, 1048, 74, 344050, -217630, -1820
15652, -22, 973, 115, 322490, -246190, -7980
15672, -25, 875, 95, 163520, -297290, -15610
15692, -30, 798, 45, -24150, -350700, -18410
15712, -32, 736, 0, -127190, -390810, -36820
15732, -38, 705, -14, -92750, -415380, -81480
15752, -45, 736, 4, 49140, -437220, -141540
15772, -42, 792, 42, 158970, -467530, -187600
15792, -45, 789, 59, 133560, -507150, -177380
15812, -73, 697, 35, 22820, -555240, -82460
15832, -91, 586, -1, -55510, -609910, 60620
15852, -85, 546, -20, -47810, -657510, 168210
15872, -65, 599, -27, 5530, -675710, 169960
15892, -54, 722, -29, 31640, -660240, 61670
15912, -48, 874, -47, 19530, -625240, -97300
15932, -44, 1064, -67, 29400, -585340, -219450
15952, -26, 1254, -71, 117460, -546770, -239190
15972, -17, 1368, -37, 266210, -508480, -138530
15992, -30, 1394, 20, 367850, -464100, -6720
16012, -34, 1384, 21, 306460, -416780, 22750
16032, -32, 1442, -71, 120400, -369670, -64260
16052, -65, 1649, -140, 16870, -303660, -203980
16072, -82, 1929, -67, 140980, -201040, -339360
16092, -40, 1929, 39, 331870, -105280, -350910
16112, -20, 1648, 17, 288190, -54950, -192710
16132, -26, 1502, -89, 73290, -11550, -52290
16152, -95, 1701, -168, -7000, 65870, -96460
16172, -146, 1997, -75, 175630, 188860, -274540
16192, -98, 1997, 47, 379470, 301700, -340970
16212, -62, 1717, -40, 249340, 356930, -201810
16232, -68, 1438, -168, -20020, 401940, -36330
16252, -123, 1450, -192, -18690, 492450, 22890
16272, -165, 1570, -111, 237650, 619080, 15330
16292, -168, 1453, -57, 401940, 723660, 39760
16312, -156, 1205, -91, 284830, 790720, 88270
16332, -151, 1067, -144, 34720, 838670, 89880
16352, -164, 1107, -162, -101850, 879480, 70700
16372, -196, 1156, -157, -67200, 914340, 130970
16392, -222, 1023, -171, -13300, 940590, 280770
16412, -214, 775, -194, -46900, 961100, 392980
16432, -211, 609, -183, -88690, 981890, 358890
16452, -221, 580, -147, -39060, 1003660, 218820
16472, -215, 596, -98, 71750, 1012830, 95200
16492, -191, 580, -48, 149870, 995190, 53410
16512, -166, 527, -15, 149310, 952000, 74060
16532, -138, 471, 7, 90370, 890400, 108990
16552, -114, 449, 29, 24430, 814030, 127190
16572, -83, 494, 51, -5530, 723660, 130550
16592, -50, 608, 60, 10500, 622370, 140000
16612, -37, 797, 63, 38920, 523320, 169120
16632, -56, 1053, 43, 41300, 444290, 206290
16652, -113, 1462, 29, 17640, 389690, 216020
16672, -167, 1997, 97, 31920, 346710, 143080
16692, -123, 1997, 109, 57960, 286370, 1820
16712, -126, 1696, -35, -125930, 189560, -32970
16732, -123, 1312, -57, -404040, 83790, 154000
16752, -107, 1397, 5, -370370, 770, 350490
16772, -143, 1788, 80, -111790, -48790, 340060
16792, -176, 1997, 44, 8820, -90860, 137830
16812, -203, 1997, -61, -112490, -168630, -53340
16832, -234, 1923, -77, -266140, -259980, 7840
16852, -192, 1509, 21, -233800, -319550, 323330
16872, -171, 1470, 75, -46480, -354130, 479290
16892, -178, 1533, 17, 19110, -407750, 312480
16912, -188, 1509, -89, -121940, -493710, 135170
16932, -160, 1485, -87, -187180, -578620, 127120
16952, -160, 1497, 38, 23800, -624890, 164080
16972, -193, 1330, 65, 291480, -648760, 151060
16992, -229, 1067, 0, 283570, -710780, 170170
17012, -238, 811, -63, 94360, -800030, 222180
17032, -237, 673, -95, -22750, -882980, 238770
17052, -250, 695, -113, -7560, -949900, 166390
17072, -270, 761, -137, 23030, -1004010, 2030
17092, -292, 755, -172, -38010, -1047970, -173320
17112, -317, 656, -211, -153160, -1084860, -268660
17132, -326, 543, -242, -207900, -1125740, -266000
17152, -323, 523, -255, -143780, -1176140, -215040
17172, -315, 606, -247, -6440, -1252090, -193830
17192, -308, 693, -238, 96320, -1257690, -217630
17212, -307, 693, -248, 37310, -1252930, -211260
17232, -294, 676, -260, 6300, -1246070, -187180
17252, -279, 757, -262, 24500, -1230390, -191520
17272, -261, 975, -247, 32760, -1197210, -246260
17292, -242, 1265, -229, -28070, -1145480, -309190
17312, -224, 1467, -235, -138250, -1080310, -305200
17332, -200, 1528, -236, -185920, -1007300, -205940
17352, -161, 1586, -193, -108220, -919660, -87220
17372, -130, 1700, -129, -19250, -816550, -2730
17392, -134, 1767, -107, -43120, -714210, 106330
17412, -139, 1716, -154, -148610, -618800, 240450
17432, -80, 1630, -176, -201040, -512960, 291060
17452, -37, 1758, -120, -102970, -376250, 211540
17472, -33, 1906, -64, 19040, -223860, 132160
17492, -54, 1900, -82, 3570, -87570, 183470
17512, -68, 1774, -127, -84140, 37730, 306880
17532, -60, 1628, -158, -126630, 173600, 354200
17552, -55, 1529, -152, -104370, 324590, 278460
17572, -68, 1474, -137, -67060, 477260, 178780
17592, -87, 1372, -170, -108430, 613830, 162190
17612, -116, 1242, -251, -238630, 733390, 182700
17632, -163, 1194, -308, -323680, 851410, 145320
17652, -243, 1240, -304, -254170, 978740, 58030
17672, -285, 1141, -291, -115990, 1102290, 4130
17692, -309, 898, -321, -69160, 1203440, 7560
17712, -354, 689, -363, -111790, 1290940, 8120
17732, -408, 652, -376, -109900, 1371370, -14490
17752, -438, 733, -366, -22050, 1431220, -1610
17772, -448, 743, -366, 52850, 1462720, 85750
17792, -454, 649, -383, 24360, 1478400, 199010
17812, -454, 523, -400, -70070, 1488830, 261730
17832, -456, 470, -384, -124880, 1491070, 258230
17852, -457, 504, -354, -83020, 1477420, 233730
17872, -443, 606, -317, 34370, 1442560, 239890
17892, -424, 749, -283, 170310, 1392230, 284690
17912, -411, 866, -277, 267260, 1342740, 344400
17932, -421, 1039, -297, 307650, 1312220, 370370
17952, -479, 1452, -300, 326200, 1309280, 316680
17972, -559, 1997, -191, 357840, 1319430, 193340
17992, -502, 1997, -25, 315210, 1291010, 66430
18012, -264, 1898, -73, 6440, 1168790, -57190
18032, -170, 1416, -174, -432180, 1004850, -93590
18052, -173, 1161, -144, -627200, 882140, 32970
18072, -178, 1078, -81, -495040, 777070, 214970
18092, -195, 1219, -13, -235060, 663390, 316330
18112, -310, 1950, 134, -1540, 561820, 125160
18132, -230, 1997, 179, 82530, 432250, -339360
18152, -106, 1997, 43, -116550, 240730, -589890
18172, -107, 1476, -2, -390670, 71750, -362320
18192, -122, 1093, 23, -390390, -51800, 25480
18212, -173, 1279, 100, -141330, -171500, 172060
18232, -216, 1824, 160, 85190, -295540, -70770
18252, -209, 1914, -27, -54250, -450590, -407330
18272, -224, 1421, -125, -391020, -614530, -400680
18292, -243, 981, -50, -368690, -733390, -109480
18312, -273, 853, -19, -45920, -835940, 141120
18332, -327, 953, -51, 124320, -958720, 168420
18352, -428, 961, -155, 1680, -1077860, 60060
18372, -545, 692, -259, -255500, -1186780, 21420
18392, -587, 462, -320, -342720, -1318380, 115640
18412, -615, 610, -360, -165760, -1466710, 169540
18432, -666, 905, -402, 4760, -1585360, 33670
18452, -732, 946, -491, -109130, -1657320, -164990
18472, -790, 725, -567, -367570, -1703660, -214690
18492, -774, 478, -605, -472780, -1753500, -134050
18512, -729, 530, -609, -346710, -1800820, -89600
18532, -697, 854, -585, -145180, -1814190, -203350
18552, -655, 1083, -575, -86590, -1781290, -424830
18572, -587, 1024, -609, -180810, -1720740, -583730
18592, -548, 1170, -615, -193900, -1653610, -608580
18612, -548, 1794, -493, 35910, -1578780, -604800
18632, -482, 1997, -416, 268240, -1499890, -655480
18652, -409, 1907, -371, 191870, -1444450, -540190
18672, -381, 1634, -192, 109340, -1385930, -60340
18692, -401, 1518, -135, 235760, -1281490, 446600
18712, -360, 1383, -240, 144130, -1167530, 612080
18732, -210, 1191, -347, -206850, -1080870, 490770
18752, -72, 1298, -379, -404810, -990570, 259070
18772, -61, 1949, -249, -116690, -831250, -840
18792, -39, 1997, -69, 412790, -607810, -195580
18812, -67, 1997, -35, 585760, -426650, -104790
18832, -58, 1413, -138, 358890, -288400, 248640
18852, 10, 996, -194, 38780, -133140, 495180
18872, -21, 1178, -154, -13440, 44310, 310940
18892, -2, 1441, -74, 216090, 234430, -95620
18912, -30, 1534, -53, 383880, 397670, -214620
18932, -100, 1263, -201, 294630, 524440, 15960
18952, -128, 962, -323, -21350, 649530, 294000
18972, -192, 960, -344, -273070, 789110, 343630
18992, -262, 1097, -312, -197750, 941010, 217350
19012, -322, 1026, -333, 72240, 1085000, 173600
19032, -379, 725, -439, 36330, 1322510, 324030
19052, -456, 421, -509, -110530, 1450260, 237580
19072, -563, 505, -511, -58170, 1565130, 84490
19092, -597, 788, -468, 146370, 1632750, 42210
19112, -592, 859, -450, 246960, 1654030, 163660
19132, -597, 622, -517, 92890, 1675310, 299320
19152, -596, 412, -576, -158270, 1714580, 278390
19172, -627, 508, -570, -241780, 1751400, 143010
19192, -666, 825, -530, -118720, 1767710, 77280
19212, -681, 1101, -518, 53690, 1752100, 156520
19232, -733, 1365, -578, 152040, 1734740, 246960
19252, -889, 1732, -667, 232890, 1759450, 188650
19272, -924, 1997, -453, 425390, 1804810, 16030
19292, -724, 1863, -242, 456960, 1767990, 21070
19312, -523, 1227, -289, 30310, 1640240, 118020
19332, -425, 1207, -304, -362320, 1496740, 54810
19352, -393, 1622, -230, -386540, 1384880, 6440
19372, -388, 1673, -249, -377860, 1281000, 141610
19392, -377, 1507, -248, -456260, 1159480, 281330
19412, -376, 1521, -90, -269430, 1031800, 198590
19432, -316, 1596, 124, 128940, 902300, -89250
19452, -189, 1597, 204, 155610, 724220, -338310
19472, -89, 1489, 163, -113890, 532630, -427350
19492, -81, 1337, 50, -308700, 350980, -299250
19512, -102, 1199, 78, -210770, 188440, -108850
19532, -124, 1247, 155, 104160, 43190, -20090
19552, -148, 1335, 210, 285250, -133770, -51520
19572, -158, 1315, 163, 165130, -334740, -165480
19592, -195, 1116, 18, -162260, -527660, -234430
19612, -244, 798, -68, -362670, -697340, -187460
19632, -293, 639, -89, -242480, -854420, -118020
19652, -355, 701, -110, 5880, -1008910, -130340
19672, -429, 811, -163, 94500, -1163190, -196420
19692, -510, 813, -250, 2520, -1308510, -216790
19712, -593, 683, -348, -123200, -1437870, -152950
19732, -666, 584, -433, -142310, -1555190, -67620
19752, -736, 801, -465, -48090, -1660540, -68880
19772, -811, 1144, -512, -12600, -1751330, -188160
19792, -881, 1129, -619, -173250, -1827000, -279160
19812, -871, 784, -698, -329420, -1890980, -196630
19832, -799, 744, -691, -184590, -1941170, -45710
19852, -781, 1171, -636, 131950, -1951740, -40810
19872, -769, 1437, -644, 214550, -1923880, -183330
19892, -687, 1228, -718, 54250, -1876350, -252140
19912, -647, 1380, -648, 95200, -1804110, -265020
19932, -609, 1751, -512, 307580, -1718710, -400050
19952, -553, 1756, -486, 213080, -1658440, -460320
19972, -527, 1584, -456, -28210, -1602720, -216370
19992, -466, 1705, -386, -60760, -1524320, 95900
20012, -377, 1800, -353, -13650, -1418130, 157080
20032, -284, 1550, -328, -102480, -1291990, 91840
20052, -184, 1297, -269, -152110, -1151990, 164010
20072, -100, 1299, -196, 6790, -1002190, 290080
20092, -46, 1482, -133, 203070, -837620, 249130
20112, 7, 1549, -96, 243180, -671860, 86520
20132, 30, 1394, -99, 152950, -509740, 41440
20152, 47, 1161, -114, 70910, -343560, 146090
20172, 62, 1071, -99, 97370, -172760, 213150
20192, 62, 1072, -75, 196000, 210, 152180
20212, 45, 1012, -75, 227080, 170170, 66290
20232, 18, 910, -104, 150360, 332920, 43750
20252, -13, 830, -139, 39760, 485170, 60690
20272, -57, 778, -178, -33950, 626710, 85750
20292, -113, 742, -216, -63770, 758590, 121100
20312, -167, 716, -253, -58590, 879270, 164080
20332, -227, 700, -294, -23380, 988330, 198380
20352, -291, 691, -334, 31640, 1091580, 208320
20372, -362, 724, -367, 92470, 1195880, 186690
20392, -423, 801, -386, 156450, 1298150, 151550
20412, -473, 879, -405, 206430, 1389010, 137830
20432, -519, 939, -448, 206780, 1465800, 158620
20452, -566, 1016, -496, 143290, 1534540, 189490
20472, -628, 1131, -529, 43820, 1602650, 193130
20492, -683, 1273, -523, -45500, 1668800, 152390
20512, -714, 1389, -495, -97300, 1719200, 57260
20532, -705, 1343, -464, -109410, 1744890, -83160
20552, -690, 1246, -453, -103810, 1750070, -189350
20572, -679, 1316, -433, -80220, 1738870, -200620
20592, -663, 1511, -391, 5670, 1710520, -126000
20612, -642, 1710, -360, 103460, 1664600, 9940
20632, -621, 1874, -359, 101710, 1608320, 146930
20652, -576, 1834, -313, 20090, 1543430, 240870
20672, -501, 1551, -236, -50470, 1470630, 312130
20692, -392, 1296, -147, -96600, 1377530, 354410
20712, -297, 1172, -76, -142520, 1257200, 290780
20732, -232, 1207, -7, -191450, 1124620, 130830
20752, -186, 1277, 47, -213710, 988890, -22960
20772, -150, 1269, 91, -198870, 840770, -78400
20792, -119, 1168, 127, -165410, 672140, -45220
20812, -94, 1055, 152, -132230, 491890, -12180
20832, -79, 978, 161, -105420, 308840, -33530
20852, -75, 926, 161, -74130, 124880, -82390
20872, -92, 879, 143, -35350, -247730, -103600
20892, -130, 809, 98, -62860, -427840, -74690
20912, -179, 728, 48, -93940, -598570, -40460
20932, -231, 666, -7, -93590, -760480, -23940
20952, -289, 654, -62, -65940, -913080, -39130
20972, -355, 697, -120, -39200, -1057840, -83790
20992, -425, 779, -187, -41650, -1193500, -140560
21012, -495, 878, -264, -68670, -1318030, -193340
21032, -559, 993, -337, -101780, -1427650, -238490
21052, -609, 1115, -401, -127190, -1519070, -276780
21072, -640, 1224, -452, -141960, -1590330, -296380
21092, -646, 1270, -490, -140000, -1639820, -271600
21112, -616, 1229, -510, -83790, -1665370, -184940
21132, -575, 1190, -485, 61740, -1667120, -65730
21152, -547, 1240, -441, 239610, -1652000, 21210
21172, -524, 1261, -415, 330610, -1629740, 57400
21192, -501, 1271, -411, 320880, -1600410, 64120
21212, -484, 1399, -400, 266070, -1557010, 20860
21232, -465, 1609, -398, 155960, -1496530, -94080
21252, -411, 1700, -403, -11830, -1417640, -231910
21272, -323, 1632, -377, -131740, -1314110, -320530
21292, -232, 1519, -308, -124460, -1190630, -326060
21312, -165, 1445, -222, -51240, -1067220, -238350
21332, -133, 1426, -159, -10080, -955780, -81130
21352, -116, 1402, -136, -41510, -850920, 89950
21372, -79, 1317, -144, -120330, -739270, 202370
21392, -14, 1173, -143, -191800, -611030, 199920
21412, 37, 1040, -119, -201600, -465850, 110880
21432, 70, 973, -84, -132230, -316330, 32760
21452, 82, 954, -56, -30380, -177170, 31710
21472, 77, 922, -41, 31850, -50400, 98840
21492, 65, 841, -57, 20090, 73080, 177170
21512, 53, 721, -88, -42000, 202090, 204190
21532, 33, 631, -113, -93520, 337470, 152950
21552, -2, 635, -124, -76440, 472430, 53760
21572, -44, 734, -124, 12390, 595420, -25550
21592, -76, 848, -124, 110880, 699860, -29260
21612, -114, 865, -154, 139510, 791980, 36540
21632, -162, 832, -207, 86590, 883540, 107730
21652, -215, 866, -248, 26250, 978250, 127540
21672, -271, 1015, -255, 36190, 1069390, 108990
21692, -310, 1182, -252, 94430, 1145620, 117880
21712, -339, 1231, -281, 91770, 1203650, 178850
21732, -363, 1169, -347, -28700, 1253560, 228760
21752, -401, 1149, -372, -172410, 1306830, 183330
21772, -441, 1264, -336, -193270, 1360870, 59010
21792, -446, 1316, -290, -111300, 1397130, -35140
21812, -441, 1206, -295, -91000, 1403780, -66990
21832, -468, 1241, -311, -134820, 1395240, -114100
21852, -492, 1513, -276, -73990, 1389570, -181790
21872, -472, 1711, -210, 99890, 1376200, -160440
21892, -438, 1610, -196, 174790, 1337980, -26600
21912, -396, 1449, -194, 88410, 1279250, 93170
21932, -351, 1422, -138, 40040, 1211280, 134050
21952, -308, 1387, -72, 89040, 1135330, 182910
21972, -267, 1282, -35, 77770, 1045520, 261590
21992, -218, 1177, -18, -30310, 941500, 289870
22012, -169, 1132, 28, -107520, 824950, 235130
22032, -125, 1106, 98, -79030, 699790, 152880
22052, -84, 1026, 136, -27580, 564760, 108990
22072, -65, 923, 141, -49700, 419650, 103040
22092, -57, 831, 133, -121030, 267960, 101360
22112, -57, 765, 126, -158970, 112910, 88060
22132, -67, 731, 119, -127540, -43820, 62020
22152, -83, 739, 108, -53410, -199290, 23800
22172, -112, 776, 87, 10150, -350910, -22400
22192, -145, 828, 53, 29540, -497770, -64750
22212, -188, 859, 6, 7840, -638330, -89600
22232, -240, 871, -49, -27230, -771680, -90160
22252, -284, 921, -97, -41160, -896280, -86100
22272, -329, 1045, -145, -39130, -1005270, -117880
22292, -361, 1129, -199, -66570, -1094730, -187670
22312, -383, 1129, -251, -134400, -1167670, -233380
22332, -393, 1122, -275, -173040, -1228080, -202860
22352, -389, 1203, -273, -119700, -1274700, -121170
22372, -393, 1298, -264, -14000, -1302000, -45150
22392, -390, 1305, -264, 57890, -1311450, 14630
22412, -361, 1239, -263, 89600, -1313130, 83930
22432, -321, 1217, -249, 141470, -1303330, 144900
22452, -291, 1257, -236, 205730, -1270640, 139090
22472, -258, 1296, -246, 206570, -1217580, 48510
22492, -217, 1323, -256, 135870, -1153740, -76440
22512, -174, 1392, -225, 85260, -1078000, -182630
22532, -138, 1455, -163, 108010, -989170, -252980
22552, -105, 1458, -117, 138740, -897120, -274190
22572, -75, 1392, -107, 99190, -812560, -234640
22592, -42, 1286, -104, 5810, -732480, -152880
22612, -7, 1179, -91, -72380, -645120, -76510
22632, 26, 1081, -76, -111580, -542640, -48020
22652, 49, 1006, -60, -130830, -427700, -66010
22672, 65, 960, -46, -135100, -310450, -93100
22692, 73, 927, -40, -115640, -198800, -89810
22712, 70, 883, -40, -83020, -93660, -44380
22732, 61, 823, -46, -46130, 115430, 59500
22752, 49, 774, -55, -40810, 224350, 56770
22772, 33, 753, -63, -28140, 333410, 26950
22792, 11, 754, -71, -5110, 437990, 4620
22812, -15, 780, -78, 22050, 533120, 14070
22832, -41, 822, -88, 39130, 617120, 55930
22852, -72, 861, -107, 32200, 692860, 111510
22872, -103, 887, -136, 2380, 765310, 152530
22892, -137, 929, -163, -25760, 836920, 158830
22912, -174, 1027, -180, -27160, 905730, 137690
22932, -209, 1145, -185, -21070, 969150, 108080
22952, -236, 1213, -189, -52010, 1024660, 69860
22972, -256, 1222, -194, -117040, 1068270, 9100
22992, -267, 1196, -194, -166810, 1098300, -64750
23012, -273, 1186, -188, -158830, 1114400, -114730
23032, -278, 1186, -176, -105630, 1116080, -114870
23052, -288, 1196, -171, -45220, 1107540, -84630
23072, -301, 1258, -162, 20720, 1095150, -64680
23092, -303, 1368, -136, 104300, 1077580, -55580
23112, -298, 1466, -100, 173180, 1048110, -34020
23132, -277, 1526, -59, 184450, 1002470, 1540
23152, -240, 1512, -25, 142450, 937860, 45010
23172, -200, 1399, -6, 80430, 857150, 101430
23192, -161, 1240, 14, 33600, 767410, 167720
23212, -133, 1117, 39, 14140, 672700, 223860
23232, -106, 1034, 72, 15680, 574000, 245700
23252, -84, 986, 100, 26670, 470820, 222180
23272, -66, 973, 128, 29470, 359870, 164780
23292, -53, 977, 144, 17710, 239750, 97090
23312, -48, 976, 143, -7000, 110250, 49000
23332, -52, 944, 131, -29960, -25130, 35770
23352, -65, 882, 114, -36120, -160790, 47880
23372, -81, 817, 96, -22330, -293160, 59570
23392, -104, 778, 75, 840, -419930, 45640
23412, -132, 787, 51, 7630, -540540, -840
23432, -166, 834, 8, -20650, -654080, -63280
23452, -198, 877, -43, -75180, -759010, -113050
23472, -228, 916, -88, -117670, -854700, -132930
23492, -251, 974, -126, -122500, -938140, -132650
23512, -269, 1067, -147, -97160, -1005480, -130060
23532, -283, 1159, -168, -74900, -1055600, -123480
23552, -290, 1184, -186, -60900, -1092070, -86870
23572, -284, 1171, -189, -19950, -1117620, -7070
23592, -273, 1168, -173, 61460, -1129520, 82320
23612, -261, 1166, -163, 128590, -1125320, 129080
23632, -238, 1138, -173, 133280, -1107400, 116690
23652, -201, 1124, -192, 106540, -1077020, 64260
23672, -167, 1195, -191, 109970, -1030820, -10080
23692, -147, 1308, -172, 144060, -966560, -97930
23712, -126, 1402, -143, 164150, -890680, -179270
23732, -100, 1447, -115, 155120, -814170, -227220
23752, -69, 1410, -88, 129360, -742210, -219520
23772, -44, 1315, -72, 89600, -671370, -156030
23792, -20, 1211, -61, 33320, -593810, -89740
23812, 8, 1129, -58, -35560, -505890, -79800
23832, 33, 1076, -58, -91840, -408940, -118650
23852, 49, 1050, -47, -105280, -305900, -152390
23872, 59, 1031, -29, -76160, -200900, -145950
23892, 60, 1002, -20, -36540, -99400, -99890
23912, 55, 959, -23, -18620, -3780, -40180
23932, 53, 893, -36, -30940, 90930, 2450
23952, 41, 821, -49, -58170, 190540, 12390
23972, 23, 780, -57, -68110, 292880, -770
23992, 6, 785, -58, -43190, 389690, -11760
24012, -12, 818, -63, 1260, 475230, 2240
24032, -37, 846, -77, 29470, 551390, 43750
24052, -69, 861, -104, 18200, 623770, 92610
24072, -100, 902, -127, -15190, 695310, 117320
24092, -131, 978, -137, -32200, 765800, 102760
24112, -157, 1063, -129, -21000, 832580, 66010
24132, -175, 1090, -129, -15050, 889560, 36890
24152, -185, 1053, -143, -54040, 932750, 23450
24172, -199, 1030, -155, -119770, 964180, 2100
24192, -215, 1062, -149, -146580, 987420, -40600
24212, -228, 1128, -137, -102340, 1001700, -78750
24232, -238, 1180, -121, -24920, 1005830, -82670
24252, -251, 1225, -114, 32970, 1001280, -63070
24272, -254, 1300, -99, 67830, 989660, -56840
24292, -243, 1398, -66, 106470, 970690, -75810
24312, -217, 1433, -29, 148820, 939820, -79730
24332, -193, 1358, -11, 151340, 892150, -23450
24352, -167, 1247, -5, 103320, 828590, 71890
24372, -144, 1204, 15, 61110, 755440, 144340
24392, -123, 1198, 49, 67480, 679280, 170520
24412, -106, 1181, 88, 95970, 601510, 170520
24432, -87, 1142, 115, 100170, 515620, 165340
24452, -68, 1094, 125, 67480, 415870, 154140
24472, -53, 1050, 125, 19390, 303240, 130900
24492, -50, 1009, 120, -19250, 185080, 104720
24512, -51, 961, 119, -30240, 67830, 89740
24532, -58, 922, 121, -8610, -49000, 87360
24552, -69, 891, 116, 28770, -167370, 82530
24572, -89, 866, 96, 15960, -405300, 31290
24592, -116, 834, 54, -32550, -518420, -3360
24612, -144, 817, 13, -62860, -625660, -33950
24632, -170, 832, -19, -61180, -724430, -65730
24652, -192, 892, -49, -47950, -811790, -101850
24672, -214, 969, -75, -52570, -886690, -129640
24692, -237, 1030, -108, -72240, -950040, -129990
24712, -251, 1051, -138, -77700, -1002890, -92190
24732, -255, 1059, -154, -43050, -1044190, -28350
24752, -256, 1081, -153, 13580, -1069950, 29890
24772, -254, 1099, -151, 49070, -1079680, 60200
24792, -243, 1082, -161, 54950, -1077090, 66010
24812, -211, 1057, -170, 68390, -1061900, 54180
24832, -181, 1088, -170, 107940, -1030820, 19670
24852, -159, 1162, -159, 144340, -983360, -38640
24872, -139, 1245, -152, 149800, -924770, -107170
24892, -120, 1310, -138, 136360, -860930, -163730
24912, -94, 1347, -119, 126350, -794640, -187670
24932, -68, 1334, -91, 114380, -725270, -171780
24952, -47, 1275, -72, 76370, -651770, -136710
24972, -21, 1206, -64, 12110, -573650, -117040
24992, 4, 1155, -62, -49000, -489090, -123760
25012, 25, 1118, -58, -78400, -396410, -136150
25032, 41, 1095, -43, -71190, -296520, -134540
25052, 50, 1082, -26, -47880, -194670, -118090
25072, 55, 1067, -22, -34580, -96740, -89600
25092, 55, 1040, -28, -43120, -1890, -55020
25112, 48, 994, -40, -61600, 95410, -27510
25132, 37, 941, -47, -68600, 196560, -17430
25152, 23, 900, -51, -50960, 296660, -19040
25172, 8, 872, -54, -20510, 391020, -14980
25192, -9, 853, -62, -980, 477680, 7490
25212, -33, 832, -80, -3500, 557620, 42840
25232, -58, 820, -103, -18690, 633290, 73150
25252, -88, 835, -121, -25410, 706090, 84140
25272, -120, 892, -128, -11830, 774130, 79730
25292, -144, 951, -129, 5320, 834610, 73640
25312, -167, 990, -138, -3080, 886900, 68040
25332, -187, 1021, -149, -40530, 932050, 46270
25352, -210, 1061, -152, -75320, 970130, -2730
25372, -221, 1101, -138, -75670, 998690, -60200
25392, -224, 1110, -125, -47880, 1012690, -85470
25412, -225, 1079, -122, -24220, 1011850, -67760
25432, -231, 1080, -124, -9310, 1002120, -43470
25452, -237, 1173, -113, 29680, 987770, -41090
25472, -237, 1313, -85, 101570, 968030, -44240
25492, -229, 1391, -51, 160860, 939540, -21000
25512, -207, 1351, -22, 160790, 897540, 27020
25532, -178, 1284, 0, 117740, 839860, 70070
25552, -145, 1245, 22, 82810, 768600, 97580
25572, -124, 1207, 43, 66080, 689290, 126070
25592, -106, 1152, 61, 49420, 605990, 162750
25612, -92, 1109, 82, 35910, 516600, 192710
25632, -78, 1093, 111, 39480, 420210, 190120
25652, -61, 1094, 133, 46550, 316820, 148750
25672, -52, 1068, 135, 28280, 206640, 94150
25692, -49, 1009, 128, -10920, 89670, 64750
25712, -53, 943, 116, -34860, -32690, 72170
25732, -65, 891, 105, -23590, -155120, 90370
25752, -84, 856, 93, 4900, -273280, 90160
25772, -104, 856, 74, 21980, -386610, 59570
25792, -129, 876, 43, 13720, -496160, 5530
25812, -151, 898, 5, -14980, -602140, -50470
25832, -177, 906, -36, -46480, -701820, -84280
25852, -202, 930, -68, -56420, -791980, -89460
25872, -222, 998, -88, -38360, -870100, -87570
25892, -242, 1077, -110, -23660, -934290, -99540
25912, -255, 1086, -138, -39480, -986650, -107450
25932, -260, 1042, -158, -60900, -1030610, -73430
25952, -256, 1022, -163, -40040, -1064910, -2660
25972, -248, 1047, -162, 12180, -1083110, 53130
25992, -236, 1072, -167, 48230, -1083250, 60900
26012, -211, 1082, -172, 59430, -1070090, 32340
26032, -180, 1090, -173, 74410, -1047480, -4200
26052, -152, 1110, -164, 107100, -1013460, -32130
26072, -134, 1160, -143, 141120, -964110, -59710
26092, -117, 1225, -124, 151270, -902580, -103320
26112, -93, 1265, -113, 126630, -838040, -156030
26132, -63, 1265, -99, 86100, -773500, -184520
26152, -39, 1239, -79, 55510, -703990, -171430
26172, -21, 1202, -62, 33460, -625730, -139230
26192, 0, 1181, -49, 3220, -541170, -123200
26212, 26, 1161, -45, -36050, -453670, -130060
26232, 39, 1125, -41, -68320, -362670, -131880
26252, 50, 1073, -31, -79240, -266630, -108920
26272, 54, 1027, -23, -69020, -166950, -74130
26292, 55, 992, -24, -52080, -67620, -48440
26312, 53, 953, -32, -46550, 29470, -33880
26332, 42, 912, -42, -54390, 126980, -23730
26352, 24, 893, -52, -61530, 226310, -16590
26372, 5, 902, -58, -49000, 323960, -12880
26392, -15, 919, -63, -17850, 415800, -6650
26412, -37, 918, -76, 7560, 501060, 11130
26432, -67, 903, -98, -8890, 656460, 63630
26452, -93, 896, -114, -24640, 727720, 72730
26472, -117, 909, -125, -28770, 792680, 69580
26492, -138, 929, -132, -28910, 849100, 65940
26512, -159, 945, -139, -38710, 896140, 67200
26532, -177, 950, -148, -59640, 935830, 61110
26552, -197, 975, -155, -72310, 969430, 32830
26572, -223, 1046, -150, -56350, 995890, -16170
26592, -239, 1146, -137, -17500, 1012620, -64540
26612, -246, 1222, -119, 15890, 1018010, -89180
26632, -240, 1216, -106, 24010, 1010660, -84630
26652, -231, 1164, -100, 24290, 990920, -63560
26672, -215, 1146, -85, 48790, 961310, -34650
26692, -202, 1176, -60, 94290, 922670, 10500
26712, -191, 1213, -38, 124810, 875420, 68390
26732, -182, 1243, -16, 125440, 821940, 110320
26752, -164, 1274, 12, 115850, 761110, 115920
26772, -140, 1284, 48, 111720, 689080, 100030
26792, -108, 1236, 81, 88480, 604030, 98210
26812, -87, 1136, 92, 32970, 506310, 125790
26832, -69, 1032, 95, -20720, 400890, 161350
26852, -56, 958, 100, -31570, 293720, 175000
26872, -48, 937, 114, -140, 187810, 153650
26892, -46, 969, 135, 40110, 81690, 103530
26912, -50, 1006, 139, 51030, -29260, 47180
26932, -57, 1005, 124, 22330, -146930, 11200
26952, -73, 963, 92, -17990, -267680, 9730
26972, -94, 912, 64, -29610, -384860, 26740
26992, -112, 890, 45, -4340, -492660, 26390
27012, -135, 908, 28, 25760, -590800, -9450
27032, -162, 940, 1, 19110, -682920, -63070
27052, -187, 946, -38, -29260, -770560, -96530
27072, -209, 927, -81, -77770, -851060, -89040
27092, -226, 934, -109, -85120, -920290, -59220
27112, -239, 1003, -122, -58870, -973560, -45850
27132, -249, 1085, -139, -45220, -1010240, -57960
27152, -246, 1101, -163, -54320, -1035020, -61740
27172, -235, 1084, -174, -38010, -1050770, -26390
27192, -214, 1085, -162, 35560, -1053500, 29960
27212, -200, 1107, -139, 120680, -1038870, 60340
27232, -185, 1107, -133, 145810, -1011360, 43330
27252, -161, 1076, -144, 109410, -978460, 4060
27272, -131, 1073, -151, 78050, -938630, -30730
27292, -104, 1129, -136, 91910, -884450, -67060
27312, -88, 1212, -108, 118440, -814100, -119000
27332, -66, 1257, -87, 109480, -737730, -173880
27352, -35, 1241, -73, 64540, -665420, -196420
27372, -10, 1174, -62, 26390, -595770, -164080
27392, 5, 1123, -50, 17010, -521220, -100660
27412, 20, 1082, -35, 11480, -437710, -60130
27432, 37, 1050, -31, -19880, -346640, -68460
27452, 53, 1026, -31, -65030, -251440, -101360
27472, 58, 1009, -30, -86170, -154700, -115570
27492, 58, 1000, -28, -69650, -58100, -92960
27512, 49, 1004, -25, -30240, 36330, -47810
27532, 39, 1001, -26, 2240, 128590, -8050
27552, 28, 969, -36, 3290, 221620, 8540
27572, 10, 925, -51, -23030, 316400, 3010
27592, -7, 903, -63, -44380, 409360, -10150
27612, -27, 915, -68, -34650, 495040, -10360
27632, -50, 923, -74, -7700, 570290, 17080
27652, -71, 897, -97, -280, 636370, 66220
27672, -96, 872, -121, -25340, 698460, 106260
27692, -124, 896, -133, -47740, 759710, 108640
27712, -150, 967, -130, -37380, 818860, 76720
27732, -171, 1043, -122, -10360, 871430, 37520
27752, -185, 1069, -118, -4480, 912450, 9170
27772, -191, 1057, -120, -33530, 940590, -10780
27792, -199, 1048, -122, -71470, 956900, -36050
27812, -206, 1085, -114, -76930, 964180, -67550
27832, -204, 1135, -99, -32410, 962150, -76790
27852, -204, 1135, -88, 25200, 950250, -45290
27872, -204, 1130, -77, 57750, 930720, -560
27892, -201, 1175, -55, 79240, 904960, 15190
27912, -183, 1248, -17, 116410, 870030, 3500
27932, -159, 1285, 19, 148400, 824250, -1540
27952, -138, 1242, 35, 134540, 765450, 26110
27972, -117, 1164, 42, 79240, 692230, 77490
27992, -95, 1100, 59, 35560, 609420, 119140
28012, -75, 1057, 81, 35980, 523600, 136850
28032, -60, 1016, 104, 58310, 436450, 140560
28052, -53, 989, 123, 67620, 345240, 138530
28072, -47, 997, 129, 56840, 246330, 125510
28092, -43, 1028, 129, 36120, 140350, 91630
28112, -46, 1031, 118, 14560, 31360, 45150
28132, -54, 996, 103, -840, -78120, 16870
28152, -66, 962, 92, 4480, -187600, 19110
28172, -83, 947, 86, 31290, -295400, 28560
28192, -103, 934, 66, 47600, -399630, 22680
28212, -128, 923, 33, 27230, -499800, 2100
28232, -147, 919, -7, -17850, -594650, -25970
28252, -163, 929, -41, -57120, -680890, -56560
28272, -179, 963, -67, -59220, -819420, -96040
28292, -193, 1017, -82, -43120, -871710, -95970
28312, -202, 1053, -98, -38150, -913290, -78680
28332, -208, 1058, -115, -34580, -945420, -39480
28352, -206, 1042, -125, -12950, -968030, 14910
28372, -201, 1029, -126, 22540, -978180, 57050
28392, -191, 1027, -125, 44100, -973980, 65240
28412, -175, 1024, -129, 44590, -956900, 42350
28432, -149, 1030, -136, 50610, -928550, 4550
28452, -124, 1060, -134, 81760, -888790, -36680
28472, -100, 1113, -117, 120330, -838110, -74340
28492, -85, 1161, -99, 135590, -780360, -102760
28512, -65, 1195, -84, 121730, -720020, -117810
28532, -44, 1204, -71, 95130, -658000, -118230
28552, -22, 1189, -59, 65730, -591850, -106330
28572, -6, 1147, -52, 32970, -518490, -93590
28592, 12, 1097, -45, 3290, -437290, -96180
28612, 29, 1069, -34, -13160, -351400, -113400
28632, 44, 1050, -26, -18690, -265370, -119210
28652, 52, 1025, -24, -22120, -180250, -95760
28672, 53, 1000, -22, -22540, -93660, -57890
28692, 49, 999, -22, -17080, -4200, -33600
28712, 45, 999, -26, -10780, 87080, -31290
28732, 37, 994, -30, -12110, 179200, -38010
28752, 22, 973, -36, -15960, 269780, -36610
28772, 8, 962, -41, -14420, 354620, -19390
28792, -7, 942, -51, -13510, 431550, 11620
28812, -25, 913, -67, -21210, 503020, 44520
28832, -48, 891, -84, -27860, 571690, 65940
28852, -71, 894, -91, -20650, 637700, 70560
28872, -92, 908, -95, -7700, 699300, 63000
28892, -111, 926, -96, -6860, 754180, 48440
28912, -125, 947, -98, -22470, 799750, 32340
28932, -140, 965, -102, -47250, 835660, 15890
28952, -153, 1008, -106, -63630, 862540, -2380
28972, -172, 1081, -104, -56770, 880810, -20720
28992, -182, 1144, -97, -29540, 891030, -33880
29012, -189, 1171, -84, 1470, 893830, -39900
29032, -188, 1156, -70, 25200, 888440, -43400
29052, -178, 1124, -51, 45150, 872340, -45290
29072, -160, 1104, -31, 63770, 843780, -37170
29092, -147, 1097, -14, 75600, 804230, -13790
29112, -134, 1108, -3, 78750, 756770, 20720
29132, -122, 1130, 14, 84140, 702590, 54950
29152, -113, 1157, 39, 99190, 642390, 76790
29172, -97, 1167, 68, 113680, 575400, 80500
29192, -78, 1147, 92, 107800, 499730, 73360
29212, -58, 1093, 105, 76860, 413700, 72310
29232, -46, 1039, 107, 40390, 319270, 82040
29252, -38, 992, 110, 20930, 221200, 92470
29272, -38, 960, 115, 24430, 123340, 92540
29292, -39, 945, 116, 40530, 25830, 79660
29312, -46, 959, 117, 53970, -72940, 54040
29332, -56, 994, 108, 50820, -173460, 19040
29352, -68, 1012, 88, 28630, -273910, -13160
29372, -81, 987, 60, 1750, -371980, -26390
29392, -98, 948, 36, -7910, -464450, -23170
29412, -114, 929, 20, 980, -548100, -24920
29432, -133, 938, 1, 6650, -622930, -41230
29452, -151, 960, -23, -7350, -691460, -58800
29472, -164, 977, -52, -35070, -754670, -62860
29492, -174, 994, -78, -58100, -810040, -49770
29512, -180, 1018, -94, -62300, -853020, -29400
29532, -178, 1054, -105, -46270, -880950, -14840
29552, -170, 1083, -110, -19950, -895020, -11970
29572, -160, 1081, -110, 7000, -898940, -11690
29592, -145, 1051, -105, 35700, -894460, 1050
29612, -127, 1027, -96, 70420, -881020, 25340
29632, -112, 1017, -89, 98630, -856940, 38360
29652, -94, 1026, -88, 102060, -822500, 21420
29672, -71, 1052, -90, 84490, -779100, -21630
29692, -50, 1092, -84, 68530, -727720, -69580
29712, -35, 1135, -75, 68670, -668360, -103810
29732, -18, 1170, -52, 81900, -602490, -120120
29752, -5, 1181, -29, 94850, -533330, -125510
29772, 12, 1146, -17, 85540, -464730, -119630
29792, 27, 1074, -22, 43260, -397040, -94430
29812, 38, 1004, -30, -7630, -325850, -62020
29832, 46, 977, -24, -31780, -246610, -51030
29852, 50, 991, -15, -21560, -160370, -69300
29872, 51, 1017, -9, 1470, -72730, -91420
29892, 47, 1028, -7, 12180, 12320, -90650
29912, 40, 1012, -15, 4480, 94500, -63560
29932, 28, 976, -28, -10430, 173810, -26320
29952, 15, 941, -40, -20790, 251860, 3430
29972, -1, 926, -47, -21210, 330470, 16730
29992, -19, 931, -53, -9940, 407820, 18690
30012, -36, 950, -53, 6230, 480620, 19180
30032, -54, 960, -62, 12600, 547120, 23520
30052, -71, 968, -72, -1540, 606830, 30730
30072, -89, 976, -83, -28350, 659330, 35840
30092, -105, 997, -89, -48720, 704830, 34860
30112, -121, 1012, -87, -50960, 744170, 28490
30132, -133, 1021, -85, -30660, 799890, 16520
30152, -144, 1029, -80, -26250, 815780, 1260
30172, -148, 1042, -73, -18690, 824180, -24850
30192, -152, 1065, -62, -2660, 823760, -48230
30212, -150, 1081, -50, 17920, 813750, -54320
30232, -144, 1083, -32, 36400, 794150, -40320
30252, -136, 1081, -20, 49350, 764680, -16030
30272, -127, 1080, -10, 60410, 727370, 2520
30292, -118, 1093, 5, 76370, 684670, 12460
30312, -105, 1101, 24, 95620, 635320, 24640
30332, -93, 1098, 47, 105490, 577430, 42910
30352, -80, 1104, 68, 99750, 511000, 55300
30372, -67, 1119, 86, 83020, 437010, 54530
30392, -54, 1113, 96, 64330, 357630, 48790
30412, -42, 1058, 102, 52290, 273490, 54530
30432, -32, 983, 109, 49420, 184870, 71890
30452, -29, 928, 114, 49840, 94080, 82250
30472, -31, 906, 113, 46690, 3290, 73360
30492, -38, 930, 106, 40250, -86870, 45430
30512, -50, 994, 97, 36120, -176540, 2660
30532, -57, 1068, 85, 30800, -264180, -46060
30552, -63, 1095, 68, 18830, -347900, -75880
30572, -76, 1040, 47, 7910, -427700, -59990
30592, -91, 959, 33, 10430, -502810, -15120
30612, -106, 930, 20, 13790, -570290, 8470
30632, -121, 960, 2, -4620, -629160, -8680
30652, -134, 1021, -22, -43330, -681450, -43960
30672, -141, 1073, -53, -80430, -727440, -65660
30692, -137, 1085, -80, -87780, -762300, -58240
30712, -130, 1060, -79, -46480, -780290, -30730
30732, -124, 1051, -63, 24080, -784350, -3990
30752, -121, 1038, -52, 65660, -783790, 9240
30772, -114, 992, -61, 52850, -783160, 24220
30792, -103, 943, -71, 31290, -778260, 52500
30812, -83, 939, -74, 42000, -761320, 69160
30832, -69, 989, -69, 63210, -726950, 40180
30852, -51, 1037, -66, 61180, -678300, -32060
30872, -34, 1083, -64, 52360, -624120, -105280
30892, -14, 1118, -52, 71260, -570150, -133700
30912, -1, 1128, -32, 109830, -516320, -104020
30932, 5, 1092, -11, 128520, -460390, -44800
30952, 13, 1049, -6, 99330, -399840, -9800
30972, 27, 1021, -17, 35770, -334530, -24640
30992, 40, 1025, -32, -21560, -262780, -65030
31012, 41, 1053, -31, -28490, -183330, -97020
31032, 36, 1117, -7, 23940, -99680, -104580
31052, 37, 1160, 21, 86380, -21910, -85610
31072, 37, 1107, 16, 83300, 45080, -42910
31092, 34, 979, -14, 4690, 109200, 2870
31112, 31, 865, -33, -73570, 178430, 22680
31132, 24, 818, -37, -78890, 251650, 9940
31152, 13, 828, -26, -18830, 322910, -7980
31172, 2, 857, -18, 45080, 386820, -1470
31192, -13, 874, -26, 59570, 443660, 28980
31212, -32, 897, -45, 18760, 497420, 51730
31232, -53, 970, -64, -31360, 549500, 37380
31252, -75, 1094, -66, -38780, 598850, -4130
31272, -94, 1191, -51, -3640, 643790, -29330
31292, -105, 1176, -43, 18200, 678860, -13230
31312, -104, 1062, -51, -12530, 700070, 15400
31332, -101, 964, -58, -64890, 710780, 10640
31352, -99, 912, -50, -77630, 716660, -21700
31372, -98, 892, -36, -37030, 717640, -35560
31392, -99, 885, -22, 20440, 709520, -10430
31412, -103, 910, -11, 57050, 692090, 25410
31432, -109, 1010, -4, 66780, 669550, 26250
31452, -119, 1202, 3, 71750, 645050, -25900
31472, -115, 1391, 29, 89670, 618520, -96670
31492, -100, 1423, 55, 104440, 584850, -116550
31512, -77, 1249, 63, 85890, 535500, -49420
31532, -57, 1016, 60, 37660, 470400, 56140
31552, -40, 873, 57, 980, 400680, 123480
31572, -32, 815, 70, 9310, 335020, 129290
31592, -27, 841, 93, 62510, 273210, 91840
31612, -26, 928, 118, 124460, 208040, 41230
31632, -30, 1053, 131, 145530, 134120, -4830
31652, -34, 1167, 117, 104370, 53130, -42560
31672, -37, 1192, 85, 28350, -31990, -61460
31692, -37, 1101, 72, -21070, -115990, -44590
31712, -40, 984, 76, -3150, -191870, 420
31732, -47, 913, 88, 50610, -260750, 35840
31752, -58, 871, 77, 71960, -328510, 33670
31772, -70, 843, 50, 31430, -397810, 8120
31792, -81, 832, 13, -40460, -467180, -12390
31812, -90, 884, -12, -91630, -531020, -24290
31832, -95, 989, -28, -93660, -582610, -45920
31852, -101, 1116, -33, -57190, -618800, -82530
31872, -105, 1201, -24, -8470, -643440, -110530
31892, -106, 1189, -28, 26250, -663740, -96740
31912, -108, 1090, -33, 32830, -683620, -28910
31932, -106, 1003, -39, 22750, -698530, 61180
31952, -93, 979, -43, 19180, -702380, 112420
31972, -77, 1003, -55, 2450, -673960, 25060
31992, -58, 1042, -64, 560, -644350, -37450
32012, -42, 1079, -60, 40740, -606690, -62790
32032, -27, 1103, -38, 107240, -564620, -51800
32052, -16, 1096, -18, 150010, -522060, -23100
32072, -10, 1068, -5, 139230, -479150, 560
32092, 1, 1030, -8, 85960, -432740, 3570
32112, 14, 994, -24, 26390, -378210, -15680
32132, 26, 976, -35, 2870, -312550, -51940
32152, 31, 1005, -24, 33040, -238630, -92610
32172, 37, 1061, 0, 84770, -165550, -112630
32192, 42, 1096, 18, 102200, -100170, -93030
32212, 43, 1059, 14, 64890, -40040, -45150
32232, 41, 981, -2, 4200, 21560, -1890
32252, 42, 908, -18, -32620, 88340, 10430
32272, 35, 871, -26, -23800, 160580, -7140
32292, 26, 884, -17, 21140, 233030, -29050
32312, 17, 919, -5, 63840, 298340, -28770
32332, 6, 937, -2, 62650, 354620, -3990
32352, -7, 937, -16, 12810, 405160, 20300
32372, -20, 962, -39, -39830, 452550, 21980
32392, -39, 1038, -53, -46760, 499030, 5110
32412, -60, 1134, -47, -7980, 544600, -7840
32432, -77, 1187, -30, 30030, 584220, -3430
32452, -80, 1135, -23, 21490, 611660, 8750
32472, -77, 1029, -32, -31990, 628110, 3220
32492, -73, 955, -38, -74200, 638050, -24080
32512, -75, 929, -33, -59920, 642880, -39480
32532, -78, 926, -20, -7630, 640080, -18900
32552, -84, 940, -10, 37240, 630350, 15820
32572, -91, 995, -2, 57190, 616000, 21560
32592, -97, 1101, 8, 68110, 598080, -20580
32612, -91, 1200, 29, 81760, 575260, -80220
32632, -74, 1203, 53, 83860, 543550, -98560
32652, -59, 1111, 58, 64890, 497000, -46410
32672, -49, 995, 60, 42630, 437500, 38290
32692, -42, 936, 58, 36750, 375270, 91210
32712, -39, 940, 67, 53690, 317240, 84490
32732, -39, 1011, 83, 90300, 262500, 31850
32752, -38, 1117, 109, 128240, 203210, -28980
32772, -34, 1202, 126, 132650, 132580, -61740
32792, -30, 1197, 114, 83580, 51590, -49210
32812, -36, 1092, 86, 12670, -32340, 1330
32832, -37, 980, 73, -12390, -111090, 49840
32852, -37, 918, 78, 25130, -181300, 48440
32872, -41, 907, 85, 66640, -246470, -2100
32892, -47, 909, 76, 60340, -312550, -54040
32912, -61, 923, 51, 15120, -381990, -70980
32932, -72, 963, 23, -28700, -451290, -56910
32952, -83, 1013, 1, -45290, -512400, -37940
32972, -90, 1056, -8, -33670, -559160, -32550
32992, -92, 1080, -9, -8680, -592480, -44240
33012, -89, 1064, -14, 210, -618170, -61040
33032, -88, 996, -30, -18130, -640780, -52500
33052, -86, 921, -36, -26180, -660030, -2730
33072, -83, 904, -33, 5110, -672630, 54390
33092, -80, 943, -30, 41580, -674030, 70070
33112, -72, 997, -40, 37660, -663670, 35980
33132, -59, 1051, -53, 9590, -645050, -13790
33152, -44, 1097, -55, 11410, -620340, -45850
33172, -31, 1117, -42, 56000, -588210, -50400
33192, -21, 1111, -22, 108010, -548240, -35770
33212, -11, 1100, -5, 134050, -504070, -21700
33232, -1, 1069, -4, 116830, -460180, -21420
33252, 14, 1015, -18, 60270, -415590, -27510
33272, 23, 970, -32, 5670, -363860, -33110
33292, 30, 982, -27, 280, -300580, -49000
33312, 32, 1049, -5, 46550, -230160, -79380
33332, 37, 1110, 16, 93730, -161420, -102130
33352, 36, 1116, 15, 90580, -98490, -93310
33372, 37, 1059, -1, 39480, -39200, -55930
33392, 36, 992, -19, -12600, 21280, -16520
33412, 30, 955, -24, -24010, 86940, 0
33432, 24, 950, -15, 5110, 158410, -10220
33452, 17, 958, -3, 45780, 229460, -27090
33472, 9, 955, -4, 60340, 293580, -30030
33492, -1, 936, -17, 33040, 349720, -16590
33512, -12, 935, -36, -14910, 399980, 1680
33532, -27, 967, -45, -42070, 446530, 14770
33552, -44, 1017, -44, -25830, 491540, 23310
33572, -62, 1048, -36, 15330, 534660, 31150
33592, -72, 1041, -28, 38780, 572740, 33250
33612, -77, 1012, -26, 23660, 602630, 18340
33632, -74, 1001, -30, -13090, 623630, -12040
33652, -76, 1003, -28, -38920, 636090, -37100
33672, -80, 1010, -26, -36400, 640360, -33950
33692, -85, 999, -19, -12740, 636720, -2240
33712, -86, 990, -8, 13510, 627760, 28700
33732, -86, 993, 5, 33320, 615160, 28700
33752, -81, 1014, 22, 48860, 598500, -3430
33772, -68, 1032, 38, 60690, 575190, -40040
33792, -60, 1050, 48, 64470, 542080, -50190
33812, -57, 1075, 55, 58590, 498750, 4130
33832, -53, 1114, 59, 53060, 394450, 22330
33852, -53, 1147, 67, 64820, 341320, 15680
33872, -45, 1163, 83, 80780, 287630, -3920
33892, -37, 1135, 99, 87640, 225960, -8750
33912, -28, 1069, 106, 70910, 154560, 10640
33932, -22, 990, 100, 38780, 79310, 35350
33952, -22, 926, 91, 18550, 5180, 46970
33972, -23, 896, 83, 25620, -64890, 32550
33992, -28, 918, 86, 49350, -131460, -8050
34012, -31, 973, 88, 62230, -198030, -52990
34032, -38, 1023, 81, 47320, -265720, -74900
34052, -47, 1042, 60, 16380, -333200, -63490
34072, -58, 1024, 41, -2520, -396410, -34230
34092, -66, 1008, 30, 3290, -450870, -15120
34112, -73, 1016, 25, 13580, -496510, -22890
34132, -78, 1026, 14, -490, -535220, -48930
34152, -79, 1018, -5, -32690, -568890, -64400
34172, -80, 995, -20, -44520, -597730, -50120
34192, -79, 981, -23, -20020, -619710, -17850
34212, -76, 978, -21, 11830, -632380, 6230
34232, -77, 975, -23, 18480, -636370, 10570
34252, -71, 967, -27, 3150, -634970, 2870
34272, -60, 962, -37, -8120, -629370, -2660
34292, -49, 967, -43, 1400, -616560, -1820
34312, -38, 990, -38, 30870, -592620, -2800
34332, -31, 1032, -24, 65380, -558810, -15680
34352, -23, 1083, -15, 82810, -521500, -37800
34372, -12, 1106, -14, 72940, -484120, -51450
34392, -1, 1094, -19, 54040, -444220, -44100
34412, 8, 1068, -16, 49770, -397320, -26320
34432, 16, 1051, -10, 57890, -343420, -21840
34452, 24, 1052, -5, 56980, -285250, -40600
34472, 32, 1059, -3, 44170, -225400, -66710
34492, 38, 1058, 0, 32970, -164710, -76160
34512, 40, 1032, 1, 28700, -103950, -60480
34532, 40, 991, 1, 27790, -42840, -34160
34552, 38, 967, 0, 28700, 18900, -16590
34572, 36, 962, 0, 28280, 81620, -15120
34592, 28, 968, -7, 22610, 145390, -24430
34612, 19, 990, -9, 17850, 209160, -34370
34632, 10, 1025, -8, 22890, 269150, -33460
34652, 0, 1035, -9, 27930, 323470, -16660
34672, -10, 1010, -18, 18830, 373240, 7910
34692, -19, 974, -27, 2240, 419790, 25270
34712, -31, 956, -32, -3430, 463260, 27860
34732, -41, 963, -30, 3710, 503230, 19460
34752, -52, 989, -28, 11830, 537880, 10920
34772, -62, 1016, -24, 11900, 565110, 9450
34792, -68, 1035, -26, 2940, 585130, 11830
34812, -71, 1043, -25, -7980, 599270, 9590
34832, -75, 1032, -21, -10640, 607390, 3780
34852, -75, 1001, -13, -2730, 608860, 4410
34872, -73, 960, -5, 8960, 604100, 11410
34892, -73, 939, 3, 18270, 592900, 14910
34912, -69, 953, 13, 26180, 574770, 8470
34932, -64, 989, 26, 34300, 550480, -5390
34952, -59, 1027, 38, 41160, 521290, -17290
34972, -55, 1047, 48, 46130, 486640, -18270
34992, -49, 1064, 61, 50820, 445550, -9380
35012, -44, 1075, 71, 56910, 398300, 1260
35032, -40, 1080, 79, 59780, 345800, 8400
35052, -32, 1062, 84, 56420, 289450, 10500
35072, -26, 1032, 89, 51310, 230020, 9660
35092, -24, 1022, 91, 51380, 166950, 9870
35112, -24, 1035, 95, 55720, 101150, 8190
35132, -26, 1050, 98, 58520, 34020, 2100
35152, -28, 1037, 94, 54180, -34860, -3360
35172, -31, 1013, 84, 43330, -103950, -7350
35192, -37, 997, 75, 31920, -171780, -14630
35212, -41, 1000, 65, 27300, -237160, -25060
35232, -49, 1012, 57, 28840, -299740, -33600
35252, -57, 1023, 49, 26250, -358890, -38990
35272, -65, 1025, 33, 11970, -413210, -45640
35292, -67, 1009, 17, -7420, -461440, -51030
35312, -73, 988, 10, -16030, -503720, -47880
35332, -75, 977, 4, -12110, -539490, -37800
35352, -76, 978, -5, -9660, -568120, -30660
35372, -76, 978, -16, -17010, -589680, -28420
35392, -72, 982, -24, -22680, -604730, -24990
35412, -67, 984, -25, -15260, -613200, -18340
35432, -61, 985, -27, -1330, -614180, -10640
35452, -53, 986, -29, 8470, -606970, -5390
35472, -44, 988, -24, 16940, -592340, -4970
35492, -30, 987, -20, 28840, -572320, -9170
35512, -19, 983, -21, 38430, -547330, -13790
35532, -11, 984, -18, 41020, -516250, -15610
35552, -2, 1008, -15, 42840, -478660, -17430
35572, 6, 1051, -9, 49910, -435750, -25200
35592, 13, 1088, -5, 55720, -389200, -39970
35612, 20, 1096, -2, 53480, -339500, -53200
35632, 26, 1076, 2, 48860, -286580, -55370
35652, 31, 1042, 6, 46060, -231560, -45920
35672, 38, 1007, 4, 30870, -118370, -26460
35692, 38, 992, 3, 23030, -58870, -29260
35712, 38, 1000, 4, 20860, 2590, -36400
35732, 35, 1015, 1, 22260, 64540, -41650
35752, 29, 1031, 2, 27790, 125790, -39410
35772, 24, 1033, 4, 33670, 184240, -25970
35792, 19, 1005, 2, 27580, 239050, -5110
35812, 8, 963, -6, 9170, 291410, 10010
35832, 1, 944, -14, -3500, 341950, 11060
35852, -10, 958, -19, 3990, 389830, 4620
35872, -22, 1003, -18, 23590, 434140, 3640
35892, -36, 1040, -15, 35000, 473340, 12810
35912, -46, 1053, -14, 24430, 506100, 20860
35932, -53, 1043, -19, 1330, 532700, 17010
35952, -54, 1023, -20, -14140, 553840, 6930
35972, -59, 1001, -18, -13090, 569240, 6230
35992, -63, 979, -13, -1680, 577990, 18480
36012, -65, 963, -7, 9660, 579460, 32620
36032, -68, 959, -3, 14210, 575120, 33740
36052, -68, 967, 1, 15190, 567140, 15820
36072, -65, 990, 13, 21630, 554820, -9660
36092, -61, 1017, 29, 33670, 534940, -21910
36112, -56, 1033, 40, 38920, 506310, -15120
36132, -52, 1029, 48, 31920, 470540, -70
36152, -43, 1010, 51, 24150, 429450, 11620
36172, -40, 1002, 60, 29260, 385070, 14980
36192, -38, 1016, 71, 46060, 338520, 8820
36212, -32, 1053, 87, 62160, 288610, -2870
36232, -29, 1085, 95, 65520, 233240, -12390
36252, -23, 1083, 98, 53200, 172760, -13440
36272, -20, 1046, 94, 33390, 108920, -5740
36292, -21, 1004, 90, 23730, 44380, 3640
36312, -22, 988, 88, 33040, -19390, 5670
36332, -25, 992, 89, 49490, -82460, -3220
36352, -29, 1009, 90, 52290, -145180, -19740
36372, -35, 1026, 77, 34930, -207270, -37100
36392, -40, 1020, 61, 10360, -267540, -47600
36412, -42, 998, 47, -2310, -323820, -45920
36432, -49, 979, 39, 4200, -374570, -36190
36452, -55, 973, 36, 17010, -419580, -31640
36472, -59, 978, 29, 15540, -459550, -38010
36492, -63, 984, 16, -4060, -495460, -45430
36512, -67, 995, 0, -25130, -526890, -43260
36532, -67, 1012, -12, -31010, -551110, -35280
36552, -65, 1030, -15, -19880, -565670, -30520
36572, -62, 1041, -14, -560, -571550, -30310
36592, -54, 1031, -12, 13860, -571690, -27510
36612, -48, 993, -14, 14630, -568050, -15820
36632, -42, 958, -19, 7980, -560070, 3010
36652, -32, 943, -18, 8260, -545720, 15960
36672, -23, 957, -18, 18060, -523390, 10290
36692, -13, 990, -16, 27790, -493500, -12180
36712, -5, 1027, -11, 33250, -458010, -36680
36732, 3, 1057, -7, 38780, -419090, -49000
36752, 11, 1075, -2, 47320, -378000, -44660
36772, 14, 1077, 2, 54600, -334740, -29540
36792, 20, 1063, 5, 54320, -288330, -16030
36812, 30, 1032, 5, 43260, -237790, -16030
36832, 33, 1003, 4, 25270, -183960, -28700
36852, 38, 996, 3, 13230, -128240, -41790
36872, 38, 1009, 6, 18130, -71540, -45430
36892, 35, 1027, 9, 34230, -14840, -37590
36912, 33, 1026, 10, 44170, 41370, -23660
36932, 25, 1016, 7, 38430, 97230, -12670
36952, 22, 1000, 0, 22750, 152740, -10290
36972, 15, 995, -6, 9170, 206920, -13720
36992, 8, 998, -8, 8120, 259140, -14700
37012, -2, 1004, -5, 20860, 308490, -6090
37032, -10, 997, -5, 33110, 353430, 11060
37052, -18, 988, -11, 27650, 393400, 24500
37072, -28, 991, -17, 9520, 429310, 23100
37092, -36, 1008, -18, 280, 461790, 13370
37112, -44, 1015, -12, 7140, 490210, 11130
37132, -51, 1002, -9, 16030, 513380, 19040
37152, -53, 977, -5, 15680, 529690, 26040
37172, -53, 956, -4, 8960, 538370, 26320
37192, -54, 951, -2, 1260, 541380, 21840
37212, -56, 978, 5, -1190, 540400, 15050
37232, -57, 1015, 12, 7000, 534310, 9730
37252, -58, 1045, 24, 22190, 522270, 8820
37272, -55, 1049, 35, 30870, 505120, 8610
37292, -51, 1036, 43, 27790, 482720, 4200
37312, -44, 1023, 51, 21560, 453880, -2940
37332, -38, 1020, 58, 22120, 419160, -6300
37352, -33, 1013, 66, 28700, 379610, -2450
37372, -27, 1007, 72, 35350, 335650, 5950
37392, -25, 996, 78, 40110, 287980, 11690
37412, -22, 1000, 86, 45080, 237580, 9310
37432, -20, 1026, 94, 50820, 184380, -840
37452, -19, 1056, 97, 53340, 128170, -13860
37472, -19, 1057, 92, 47250, 69230, -22680
37492, -18, 1029, 87, 35840, 8750, -21350
37512, -22, 994, 82, 29470, -111860, -4060
37532, -27, 974, 78, 37520, -169750, -9730
37552, -31, 981, 73, 34860, -225680, -26040
37572, -35, 1002, 65, 22680, -279580, -43190
37592, -42, 1028, 53, 5880, -330260, -53480
37612, -47, 1039, 36, -4550, -375410, -55160
37632, -48, 1031, 29, 770, -414330, -49560
37652, -51, 1015, 26, 12740, -448140, -39690
37672, -53, 998, 23, 10290, -477330, -30800
37692, -57, 983, 12, -9170, -501830, -25410
37712, -57, 973, 0, -25130, -520940, -23380
37732, -53, 975, -7, -23030, -533540, -22820
37752, -50, 984, -10, -9520, -538160, -22540
37772, -44, 990, -11, 2800, -534870, -22050
37792, -39, 992, -10, 10780, -526120, -20650
37812, -32, 990, -9, 17990, -514080, -15470
37832, -24, 995, -8, 24220, -498330, -5880
37852, -18, 1000, -10, 27510, -476490, 3150
37872, -11, 1017, -7, 30730, -447370, 2870
37892, -5, 1043, -4, 35280, -412160, -11550
37912, 5, 1061, -3, 36890, -373030, -32340
37932, 12, 1061, 0, 36750, -331520, -41720
37952, 20, 1041, 4, 41510, -288120, -31220
37972, 25, 1022, 8, 49280, -242550, -11480
37992, 29, 1014, 8, 49070, -194880, -1120
38012, 32, 1021, 7, 38500, -143640, -9800
38032, 34, 1034, 6, 28910, -88760, -30310
38052, 36, 1036, 7, 28770, -31850, -44800
38072, 35, 1024, 10, 33810, 23520, -39760
38092, 31, 998, 11, 35000, 75880, -18900
38112, 27, 977, 6, 30730, 125860, 3640
38132, 22, 962, 0, 22540, 175560, 13510
38152, 15, 961, -5, 16520, 226450, 6580
38172, 6, 986, -5, 22260, 276990, -7770
38192, -1, 1020, 0, 36120, 323260, -12740
38212, -10, 1033, 2, 38150, 362740, -1120
38232, -20, 1008, -5, 20020, 396270, 16520
38252, -24, 980, -12, -2240, 425460, 26950
38272, -32, 971, -14, -7840, 452200, 25970
38292, -39, 982, -11, 6370, 476420, 20090
38312, -45, 1007, -3, 26460, 495740, 18690
38332, -52, 1027, 3, 33530, 508130, 21840
38352, -55, 1045, 6, 20580, 514430, 18340
38372, -55, 1071, 7, 1610, 515620, 1470
38392, -54, 1084, 11, -4130, 511140, -11130
38412, -52, 1066, 18, 3080, 500920, -420
38432, -54, 1025, 26, 10290, 485590, 22400
38452, -47, 979, 31, 14280, 465290, 31640
38472, -39, 950, 42, 19810, 440370, 19670
38492, -32, 926, 53, 28560, 411670, 630
38512, -25, 896, 61, 35770, 378070, -6440
38532, -22, 888, 65, 38640, 338730, 1050
38552, -21, 927, 73, 43190, 294630, 9240
38572, -20, 1008, 77, 53690, 247520, 6580
38592, -22, 1087, 83, 63420, 199500, -5390
38612, -21, 1119, 87, 61950, 151690, -18690
38632, -14, 1087, 87, 48510, 102620, -24710
38652, -12, 1016, 88, 34860, 49910, -13580
38672, -12, 955, 85, 31500, -6160, 16520
38692, -19, 944, 80, 33320, -63280, 42980
38712, -27, 1003, 77, 30520, -116830, 34930
38732, -28, 1079, 68, 20510, -165690, -12390
38752, -27, 1116, 58, 6720, -211120, -66080
38772, -25, 1084, 50, -3010, -253470, -84770
38792, -27, 1012, 45, 0, -293370, -56210
38812, -33, 950, 46, 14630, -330750, -6860
38832, -37, 912, 45, 24010, -364770, 24080
38852, -39, 899, 36, 6370, -395150, 19530
38872, -39, 905, 14, -37310, -420560, -11060
38892, -35, 954, 0, -76230, -439040, -47530
38912, -34, 1054, -8, -77070, -450310, -71190
38932, -35, 1146, 0, -36470, -454440, -71820
38952, -36, 1182, 16, 18130, -451920, -50960
38972, -35, 1118, 25, 47320, -446530, -17360
38992, -27, 1003, 11, 26810, -442470, 20440
39012, -18, 896, -2, -22610, -437360, 54040
39032, -5, 844, -11, -53200, -424970, 67480
39052, 4, 865, -8, -42000, -401310, 43540
39072, 11, 939, 2, -2870, -367640, -12180
39092, 16, 1028, 18, 36190, -329910, -64960
39112, 16, 1104, 22, 54740, -294560, -76370
39132, 11, 1138, 17, 51310, -263690, -37800
39152, 11, 1131, 8, 38990, -233450, 21280
39172, 20, 1080, 10, 34510, -196350, 54670
39192, 29, 1018, 16, 35770, -149030, 35350
39212, 35, 962, 19, 28350, -97020, -12180
39232, 40, 933, 20, 15470, -48650, -40810
39252, 38, 935, 16, 14490, -6510, -30100
39272, 30, 968, 12, 27790, 31780, 6650
39292, 18, 1025, 7, 42490, 71960, 36750
39312, 9, 1098, 11, 51730, 117810, 33670
39332, 2, 1142, 16, 54880, 168070, -4410
39352, 7, 1125, 18, 45220, 216160, -46830
39372, 5, 1062, 13, 2170, 286020, -4970
39392, 0, 979, 2, -5530, 310450, 55790
39412, -6, 920, -5, -140, 336070, 85120
39432, -13, 897, -7, 19950, 365750, 67550
39452, -23, 927, 2, 49490, 395920, 22330
39472, -27, 986, 18, 66500, 419930, -19320
39492, -28, 1043, 29, 50470, 433160, -36050
39512, -28, 1072, 26, 9730, 435260, -22330
39532, -27, 1049, 14, -25270, 431060, 13160
39552, -30, 987, 5, -27860, 426440, 50050
39572, -33, 920, 9, 4690, 423500, 64750
39592, -33, 882, 23, 50610, 419300, 52220
39612, -29, 878, 44, 78890, 409920, 25550
39632, -27, 909, 58, 70630, 392770, -1680
39652, -23, 970, 58, 34160, 368200, -23730
39672, -24, 1064, 50, 3220, 338870, -33810
39692, -29, 1155, 51, 4480, 308490, -23450
39712, -29, 1176, 60, 29330, 278600, 6370
39732, -26, 1096, 69, 46900, 247590, 35210
39752, -19, 998, 80, 45150, 211820, 44660
39772, -11, 930, 83, 31850, 169400, 37240
39792, -4, 896, 80, 12880, 124390, 20650
39812, -4, 912, 73, 840, 80850, 140
39832, -10, 986, 68, 11690, 38710, -19880
39852, -20, 1122, 76, 43540, -2240, -39130
39872, -24, 1227, 86, 68600, -42700, -54390
39892, -23, 1235, 84, 58170, -85120, -54530
39912, -21, 1118, 70, 18340, -129360, -30100
39932, -16, 980, 60, -9170, -172270, 7210
39952, -13, 877, 56, -4550, -211190, 30170
39972, -15, 829, 58, 13930, -245420, 22050
39992, -17, 840, 56, 22540, -275730, -14560
40012, -20, 905, 51, 12180, -303940, -61390
40032, -25, 1010, 36, -9730, -330470, -97300
40052, -33, 1130, 21, -24010, -353500, -108710
40072, -40, 1227, 15, -12530, -370720, -92820
40092, -38, 1214, 30, 21560, -381220, -59150
40112, -32, 1102, 39, 39060, -388430, -24570
40132, -26, 966, 31, 8680, -396340, 4480
40152, -22, 852, 17, -42420, -404040, 27860
40172, -15, 798, 2, -69160, -407820, 36540
40192, -8, 822, 0, -57190, -403760, 19320
40212, -4, 928, 2, -20720, -390530, -20930
40232, -3, 1059, 10, 17920, -370510, -60620
40252, -5, 1161, 19, 44100, -349300, -69090
40272, -5, 1177, 24, 50050, -329910, -32410
40292, 0, 1102, 18, 36330, -310450, 28490
40312, 11, 990, 12, 19110, -285670, 69510
40332, 23, 925, 12, 15610, -252210, 65800
40352, 29, 901, 15, 21910, -212170, 30030
40372, 33, 912, 18, 27230, -169960, -10430
40392, 36, 956, 19, 31360, -128800, -33600
40412, 34, 1024, 19, 42070, -90230, -28770
40432, 27, 1092, 22, 58030, -52570, -560
40452, 18, 1126, 19, 65590, -11620, 27090
40472, 16, 1125, 16, 54250, 33670, 25480
40492, 21, 1089, 17, 35910, 80010, -4830
40512, 24, 1036, 19, 26180, 124040, -25830
40532, 21, 970, 17, 23380, 163660, -10920
40552, 17, 926, 12, 22400, 197960, 24710
40572, 10, 909, 8, 25760, 229600, 52080
40592, 4, 915, 8, 33530, 262360, 55720
40612, -5, 937, 8, 40950, 297080, 36540
40632, -10, 981, 16, 45080, 330330, 6930
40652, -13, 1032, 23, 44660, 357000, -13720
40672, -18, 1067, 20, 33390, 374850, -11480
40692, -22, 1058, 10, 10010, 386190, 9660
40712, -28, 1009, 5, -8960, 395080, 33810
40732, -29, 964, 10, -1820, 403480, 46130
40752, -30, 950, 22, 26810, 410060, 41300
40772, -32, 977, 39, 50820, 412090, 23590
40792, -29, 1018, 39, 50540, 407050, 4620
40812, -31, 1060, 34, 27020, 395430, -7210
40832, -33, 1102, 34, 3640, 380800, -14350
40852, -32, 1122, 46, 8610, 365050, -17220
40872, -28, 1083, 59, 37590, 345800, -6720
40892, -23, 1011, 65, 53900, 320880, 17360
40912, -18, 960, 66, 42490, 290010, 35280
40932, -15, 953, 62, 24360, 255080, 30240
40952, -14, 992, 67, 20300, 219310, 5460
40972, -12, 1046, 74, 34020, 183330, -19740
40992, -14, 1085, 86, 55300, 144970, -27370
41012, -15, 1085, 94, 67340, 102900, -18830
41032, -12, 1033, 86, 57120, 56910, -5320
41052, -11, 974, 75, 27790, 8680, 6020
41072, -10, 942, 70, 4760, -38010, 7490
41092, -10, 944, 71, 9520, -81760, -4270
41112, -13, 973, 77, 31220, -123690, -23030
41132, -16, 1008, 76, 41090, -164710, -38850
41152, -21, 1038, 61, 26740, -205310, -45850
41172, -23, 1057, 48, 1120, -244790, -44730
41192, -25, 1047, 39, -16240, -280210, -38430
41212, -25, 1010, 38, -15050, -308700, -27650
41232, -23, 970, 38, 7560, -347760, -30730
41252, -22, 957, 37, 140, -364350, -33040
41272, -23, 953, 30, -17360, -380100, -25340
41292, -22, 961, 18, -29400, -391930, -8470
41312, -21, 975, 9, -27300, -395780, 3290
41332, -20, 1010, 8, -14840, -389550, -5390
41352, -14, 1053, 11, -420, -376740, -31220
41372, -7, 1079, 15, 8400, -363300, -44030
41392, -4, 1062, 15, 9240, -350560, -18270
41412, -1, 1021, 12, 7210, -334460, 28770
41432, 1, 990, 12, 10430, -311780, 53060
41452, 7, 991, 14, 17500, -282730, 35560
41472, 18, 1015, 16, 19880, -249200, -350
41492, 23, 1018, 17, 14770, -213220, -19180
41512, 28, 993, 16, 11690, -176400, -10850
41532, 30, 971, 17, 20230, -139160, 8260
41552, 30, 981, 21, 34510, -101570, 20860
41572, 30, 1028, 22, 39830, -62440, 24220
41592, 24, 1084, 18, 33250, -20720, 20440
41612, 18, 1121, 18, 25690, 23100, 7700
41632, 21, 1087, 19, 21770, 66640, -10150
41652, 29, 979, 22, 17850, 107170, -11550
41672, 32, 856, 25, 13440, 142870, 14070
41692, 29, 753, 26, 10780, 173110, 46130
41712, 27, 711, 19, 10850, 199640, 60410
41732, 22, 746, 10, 16170, 226450, 50400
41752, 9, 863, 5, 34230, 256340, 19600
41772, -13, 1079, 9, 66150, 289450, -22750
41792, -36, 1322, 25, 97510, 320880, -59220
41812, -43, 1432, 39, 85470, 343280, -64820
41832, -29, 1276, 21, 13230, 352660, -24780
41852, -21, 1053, 4, -58310, 355320, 44030
41872, -16, 911, 0, -63280, 357840, 99330
41892, -20, 881, 9, -13020, 361970, 111440
41912, -24, 932, 29, 45640, 367220, 84350
41932, -29, 1016, 45, 67690, 369460, 41090
41952, -32, 1090, 44, 37380, 366520, -8050
41972, -35, 1182, 41, -10290, 357770, -58660
41992, -29, 1243, 45, -27580, 343070, -81620
42012, -27, 1166, 47, -14420, 321790, -37450
42032, -23, 1009, 50, -3850, 296380, 48790
42052, -16, 877, 56, 7560, 268730, 100100
42072, -8, 803, 66, 27440, 239190, 85890
42092, 0, 768, 73, 38010, 209510, 31360
42112, 3, 764, 78, 28910, 179620, -24150
42132, 5, 791, 78, 15330, 145880, -54110
42152, 3, 888, 75, 17850, 104860, -53200
42172, -6, 1027, 75, 36190, 59920, -37520
42192, -23, 1192, 67, 52150, 19250, -30450
42212, -36, 1319, 70, 58100, -14210, -44450
42232, -28, 1314, 83, 60760, -45430, -69020
42252, -14, 1169, 82, 48650, -81900, -67550
42272, -9, 981, 68, 9870, -123620, -15890
42292, -8, 821, 58, -21630, -165060, 56280
42312, -4, 721, 53, -14700, -203350, 95760
42332, -4, 690, 54, 10920, -234290, 73920
42352, -3, 716, 57, 22190, -257740, 6300
42372, -6, 791, 49, 9170, -279090, -66430
42392, -10, 922, 36, -13860, -302120, -111510
42412, -19, 1077, 17, -25620, -325290, -116200
42432, -33, 1236, 10, -6160, -343700, -84000
42452, -48, 1336, 31, 47530, -352870, -34930
42472, -41, 1285, 48, 90930, -355040, -6790
42492, -26, 1115, 29, 53970, -359170, -7630
42512, -16, 942, 8, -33040, -365120, 5670
42532, -7, 841, 1, -68180, -366030, 39550
42552, 1, 836, 5, -30450, -358330, 51100
42572, 3, 919, 16, 25620, -341530, 18340
42592, 1, 1049, 26, 53410, -319060, -36330
42612, -1, 1193, 26, 44240, -296940, -73500
42632, -4, 1244, 7, 12250, -277480, -70140
42652, 0, 1188, 2, -14280, -257040, -28490
42672, 11, 1075, 18, 2520, -229810, 24780
42692, 21, 961, 39, 47040, -195580, 53340
42712, 30, 851, 37, 50050, -160790, 47600
42732, 38, 762, 27, 1890, -128730, 27510
42752, 44, 718, 20, -41720, -98910, 13510
42772, 44, 737, 17, -41510, -70700, 12740
42792, 41, 821, 16, -5600, -41020, 16940
42812, 30, 969, 19, 38850, -7210, 14700
42832, 11, 1170, 32, 77560, 29260, 3010
42852, -9, 1342, 42, 94990, 65800, -12110
42872, -4, 1327, 20, 60620, 100240, -28630
42892, 3, 1209, 3, -15820, 129080, -38150
42912, 6, 1092, 12, -45780, 154910, -11200
42932, 4, 994, 21, -2940, 181580, 52220
42952, 4, 916, 20, 37660, 207620, 98490
42972, 5, 887, 25, 40810, 232890, 88130
42992, 6, 896, 31, 33460, 256480, 40670
43012, 3, 915, 31, 24850, 276990, -3780
43032, 0, 943, 27, 7630, 292950, -22470
43052, -4, 979, 30, -3150, 302120, -11830
43072, -11, 1002, 34, 24220, 302890, 58730
43092, -16, 1011, 31, 17010, 304500, 60130
43112, -20, 1030, 32, 6580, 307370, 18690
43132, -16, 1061, 44, 15820, 306250, -25900
43152, -12, 1064, 56, 23590, 297500, -32900
43172, -12, 1024, 58, 7770, 280210, -2660
43192, -9, 977, 53, -11480, 256970, 35910
43212, -11, 942, 50, -9800, 232750, 54600
43232, -10, 933, 51, 5880, 211890, 38920
43252, -10, 964, 58, 21910, 193340, -3500
43272, -11, 1037, 70, 35840, 171640, -44590
43292, -13, 1118, 81, 39060, 142590, -56770
43312, -8, 1161, 75, 17290, 108500, -38290
43332, -12, 1121, 63, -13790, 74900, -7140
43352, -10, 1043, 58, -13930, 44100, 17850
43372, -5, 977, 70, 18060, 15470, 21770
43392, -1, 932, 80, 39620, -13090, 5250
43412, 0, 899, 79, 28140, -44450, -13720
43432, 2, 875, 71, -1120, -78330, -21210
43452, 2, 870, 61, -20860, -111650, -20440
43472, -1, 903, 54, -16800, -141260, -22400
43492, -4, 975, 50, 5670, -165760, -33950
43512, -10, 1073, 56, 27160, -185640, -52290
43532, -17, 1160, 58, 31500, -204050, -66780
43552, -16, 1183, 52, 14210, -223230, -63770
43572, -14, 1104, 39, -9940, -241290, -35350
43592, -10, 1003, 36, -15750, -254870, 5600
43612, -7, 930, 39, -2100, -263620, 27580
43632, -3, 892, 40, 7910, -268590, 16170
43652, 0, 880, 41, 2100, -271180, -12810
43672, 4, 883, 36, -11830, -273210, -34090
43692, 9, 906, 28, -22050, -274120, -35840
43712, 5, 950, 22, -18690, -271040, -26110
43732, 4, 1025, 23, 2100, -262640, -16870
43752, -1, 1115, 29, 29470, -250180, -13510
43772, -3, 1190, 32, 37310, -234780, -16380
43792, 1, 1173, 27, 15540, -217560, -23100
43812, 11, 1087, 20, -8120, -199920, -17780
43832, 16, 993, 24, -4900, -180530, 8750
43852, 21, 930, 29, 12320, -158480, 36680
43872, 22, 906, 28, 21840, -134960, 42630
43892, 25, 937, 29, 22610, -109830, 23800
43912, 26, 1000, 30, 21000, -82530, -4760
43932, 23, 1057, 29, 16590, -53410, -24640
43952, 23, 1081, 25, 13160, -24360, -23170
43972, 22, 1064, 29, 19950, 3990, 980
43992, 23, 1004, 34, 31990, 32060, 32690
44012, 23, 931, 31, 29260, 60480, 47460
44032, 25, 884, 30, 12950, 88690, 37450
44052, 25, 876, 27, 3150, 115500, 18900
44072, 19, 912, 28, 8540, 140910, 6580
44092, 12, 989, 28, 21560, 164850, 1680
44112, 7, 1079, 31, 33180, 185990, 210
44132, 0, 1134, 35, 36750, 204820, 4200
44152, -5, 1122, 34, 25970, 222390, 13720
44172, -5, 1064, 30, 4270, 237790, 18760
44192, -1, 1016, 32, -8680, 249480, 15680
44212, -2, 986, 37, -1680, 256620, 18410
44232, -5, 955, 38, 9590, 259560, 32200
44252, -5, 941, 41, 11340, 259910, 41720
44272, -6, 959, 46, 10220, 257950, 34440
44292, -8, 1005, 48, 12250, 252630, 14420
44312, -7, 1050, 50, 10500, 245000, -7140
44332, -9, 1077, 56, 5040, 234990, -18550
44352, -8, 1061, 61, 6020, 220780, -12040
44372, -6, 1000, 60, 8680, 202020, 9870
44392, -3, 941, 60, 2100, 180530, 28700
44412, -1, 911, 58, -4130, 158200, 29190
44432, 0, 920, 67, 3360, 135450, 14070
44452, 0, 948, 73, 18130, 111720, -5740
44472, 1, 983, 71, 22260, 86100, -20860
44492, -2, 1021, 70, 13090, 58450, -27300
44512, -2, 1069, 68, 7140, 29400, -26110
44532, -6, 1098, 67, 11550, 490, -22190
44552, -6, 1095, 65, 14770, -26110, -20440
44572, -5, 1052, 65, 12040, -50190, -20720
44592, -3, 1007, 67, 10850, -74620, -17990
44612, -2, 971, 64, 7910, -100310, -12460
44632, -1, 936, 54, -3710, -125090, -8050
44652, 0, 914, 52, -11200, -147420, -6090
44672, 0, 915, 54, -2450, -167160, -8470
44692, -1, 941, 54, 10080, -184520, -17920
44712, -1, 985, 47, 7980, -199570, -31290
44732, -4, 1032, 41, -4620, -212520, -37940
44752, -6, 1084, 37, -8330, -222880, -32970
44772, -8, 1125, 36, -210, -229180, -24780
44792, -7, 1134, 37, 7070, -230580, -22190
44812, -2, 1105, 39, 9030, -228690, -21770
44832, 4, 1051, 34, 7700, -225540, -13860
44852, 5, 996, 32, 630, -220990, 1820
44872, 7, 962, 28, -8190, -213920, 15260
44892, 13, 954, 33, -7280, -203560, 17010
44912, 17, 963, 33, 3010, -190190, -5950
44932, 19, 963, 33, 4550, -156800, -9450
44952, 21, 971, 31, 1330, -138460, -2030
44972, 21, 982, 32, 5460, -118510, 6230
44992, 24, 994, 29, 12110, -96320, 11060
45012, 23, 1002, 32, 14420, -71890, 14280
45032, 19, 1013, 33, 12040, -45500, 12320
45052, 18, 1034, 31, 7840, -18830, 2590
45072, 20, 1067, 29, 6160, 7070, -6510
45092, 14, 1100, 28, 8960, 33110, -7490
45112, 13, 1119, 33, 14980, 58450, -980
45132, 14, 1099, 35, 18340, 81060, 12530
45152, 14, 1029, 36, 12390, 101430, 31080
45172, 15, 940, 33, 1610, 120820, 43260
45192, 19, 889, 34, -2940, 138460, 40530
45212, 19, 876, 37, 140, 154280, 27020
45232, 18, 900, 41, 6020, 167090, 17850
45252, 12, 938, 37, 7420, 176470, 22540
45272, 6, 980, 34, 5670, 185640, 28350
45292, -1, 1045, 37, 12320, 195440, 18200
45312, -6, 1142, 46, 25130, 202650, -3010
45332, -9, 1188, 47, 18480, 206290, -14490
45352, -8, 1138, 42, -5460, 208180, -6650
45372, -5, 1053, 51, -10080, 204820, 19110
45392, 0, 965, 58, 630, 194530, 46690
45412, 0, 905, 54, -5810, 181930, 58310
45432, 1, 891, 48, -19390, 168980, 50820
45452, 0, 931, 46, -9660, 155960, 26250
45472, -7, 1042, 57, 23870, 142800, -5670
45492, -11, 1180, 71, 53480, 127960, -31570
45512, -7, 1223, 75, 50260, 107520, -30940
45532, -2, 1089, 58, 14490, 83020, 7490
45552, 2, 913, 50, -7630, 59290, 63420
45572, 4, 807, 58, 19810, 36820, 92050
45592, 9, 792, 72, 71190, 13790, 78400
45612, 12, 827, 81, 94010, -10220, 39970
45632, 8, 896, 72, 63140, -33950, -350
45652, 2, 981, 52, 8820, -55300, -33880
45672, -4, 1107, 47, -7280, -74970, -58940
45692, -9, 1224, 57, 33250, -93870, -62650
45712, -17, 1254, 73, 74550, -111440, -34860
45732, -19, 1185, 71, 58380, -129290, 3150
45752, -13, 1104, 53, -3780, -150920, 24150
45772, -7, 1052, 33, -59640, -169750, 19250
45792, -5, 1037, 23, -72240, -178640, -1470
45812, -3, 1059, 33, -38010, -178570, -27160
45832, 0, 1109, 53, 8190, -174930, -49630
45852, 0, 1130, 56, 15960, -175980, -49700
45872, -3, 1108, 37, -27090, -182070, -16730
45892, 0, 1047, 17, -76650, -185710, 23590
45912, 8, 978, 17, -82110, -180880, 39550
45932, 17, 913, 30, -46480, -166320, 26950
45952, 22, 862, 42, -14210, -147490, 5390
45972, 24, 824, 45, -13300, -132580, -8050
45992, 29, 799, 38, -36470, -123690, -5950
46012, 29, 812, 23, -61390, -116200, 7560
46032, 26, 887, 14, -67830, -104090, 16940
46052, 14, 1057, 8, -48090, -83370, 4410
46072, -5, 1307, 12, -7910, -55230, -29470
46092, -13, 1477, 34, 28560, -24150, -63280
46112, 3, 1295, 34, 24570, 2310, -61250
46132, 18, 1012, 22, -30380, 19950, -210
46152, 27, 782, 12, -84000, 34370, 85890
46172, 39, 643, 5, -96040, 52360, 135800
46192, 38, 586, 5, -75460, 79030, 121870
46212, 34, 626, 12, -47460, 116060, 58100
46232, 27, 759, 20, -16800, 156030, -25200
46252, 16, 976, 35, 13160, 189980, -94990
46272, 1, 1208, 44, 27930, 214900, -120960
46292, -17, 1331, 22, -980, 232610, -85120
46312, -22, 1257, -11, -65310, 245210, -9520
46332, -11, 1047, 3, -89600, 259560, 42560
46352, 0, 893, 27, -33180, 280490, 44800
46372, 3, 782, 39, 28560, 297150, 39970
46392, 4, 708, 42, 40250, 302820, 46200
46412, 5, 692, 40, 21700, 300720, 47530
46432, 5, 742, 40, 5950, 292460, 39830
46452, 2, 853, 37, 3920, 281540, 24360
46472, -8, 1020, 34, 13440, 271950, 6370
46492, -27, 1224, 43, 35350, 264530, -6160
46512, -36, 1354, 62, 62440, 257880, -7490
46532, -26, 1293, 67, 66850, 247170, 6370
46552, -15, 1076, 54, 22470, 227360, 41440
46572, -7, 894, 44, -40530, 200760, 99120
46592, 1, 781, 44, -66570, 172830, 154070
46612, 4, 751, 50, -44030, 147630, 173810
46632, 5, 817, 59, -490, 127820, 149240
46652, 1, 962, 66, 31500, 111580, 92960
46672, -8, 1168, 69, 33600, 95620, 26390
46692, -21, 1362, 55, 8330, 77490, -25970
46712, -25, 1400, 38, -31080, 56560, -40320
46732, -22, 1242, 45, -55090, 34650, 5740
46752, -17, 1068, 57, -38360, 14420, 99190
46772, -8, 960, 54, -19110, -22190, 163590
46792, -1, 950, 46, -43330, -36050, 100380
46812, 2, 1038, 37, -47670, -45850, 23730
46832, 0, 1146, 43, -25830, -52640, -23450
46852, -1, 1198, 51, -3850, -58660, -19810
46872, -1, 1146, 56, 70, -68320, 31080
46892, 0, 1027, 52, -13580, -81060, 93030
46912, 5, 909, 44, -37310, -90790, 116550
46932, 13, 825, 36, -49350, -94010, 88970
46952, 17, 802, 37, -33740, -91910, 31500
46972, 19, 826, 48, -4830, -89040, -24710
46992, 23, 868, 58, 6230, -89250, -54040
47012, 23, 900, 49, -10780, -92190, -50120
47032, 20, 926, 36, -26460, -95550, -24920
47052, 14, 980, 36, -13160, -95900, -4480
47072, 9, 1032, 42, 13090, -89460, -13930
47092, 10, 1062, 47, 16590, -77980, -50820
47112, 16, 1041, 44, -4830, -67760, -82600
47132, 22, 1005, 40, -21700, -62580, -78890
47152, 16, 995, 35, -19950, -60200, -45220
47172, 7, 1048, 35, -8330, -53830, -23100
47192, -3, 1137, 36, 4340, -41860, -43820
47212, -16, 1247, 41, 6720, -26880, -100030
47232, -9, 1299, 47, -2100, -17290, -152600
47252, 3, 1221, 50, -8400, -17220, -137550
47272, -9, 1114, 51, -10290, -23590, -46970
47292, -4, 1147, 47, -21070, -33040, 22750
47312, 0, 1233, 19, -29330, -37800, -16100
47332, -17, 1225, 45, 39200, -32410, 210
47352, -17, 1215, 64, 74410, -24990, -3920
47372, 12, 1189, 58, -17710, -20930, -130620
47392, 10, 1088, 49, -59780, -34440, -105770
47412, 4, 944, 41, -34860, -54460, 58800
47432, 8, 822, 26, -45990, -57120, 100030
47452, 16, 813, 40, -31500, -51100, 36540
47472, 18, 871, 68, 57190, -58940, 6860
47492, 29, 845, 65, 67480, -63070, -25060
47512, 26, 794, 38, -50330, -54390, -82530
47532, 20, 757, 38, -121030, -49420, -101500
47552, 25, 885, 48, -49910, -67270, -51240
47572, 28, 916, 47, 39760, -81550, -18130
47592, 15, 969, 47, 68600, -83930, 27720
47612, -8, 1036, 60, 80010, -84420, 79170
47632, -35, 1262, 50, 51030, -79450, 27580
47652, -30, 1375, 12, -41650, -69580, -161490
47672, -47, 1710, -24, -74690, -55930, -278110
47692, -6, 1505, 46, 33670, -42910, -196770
47712, -27, 1095, 104, 152950, -33810, 53130
47732, -4, 690, 69, 121940, -47180, 312270
47752, 5, 407, 41, -48720, -56630, 317590
47772, 23, 346, 16, -174930, -52990, 162820
47792, 14, 423, 1, -160510, -59990, -27860
47812, -7, 750, -8, -65590, -49700, -230090
47832, -2, 1380, 32, 120820, -56630, -325990
47852, -39, 1754, 119, 326340, -89320, -216650
47872, -51, 1480, 70, 257110, -109130, -11480
47892, -5, 1051, -13, -37730, -126840, 125020
47912, 33, 654, -40, -167790, -133140, 156870
47932, 35, 543, 0, -130620, -102060, 93100
47952, 64, 658, 3, 54950, -66010, 37730
47972, 72, 952, 31, 236530, -40530, -3220
47992, 78, 1134, 22, 248990, 11480, -33250
48012, 61, 945, -58, 51730, 104510, -29890
48032, 52, 770, -89, -165970, 218050, 20860
48052, 33, 728, -94, -183260, 329700, 41510
48072, -10, 700, -86, -60900, 434280, 78540
48092, -40, 670, -87, 34440, 532980, 147910
48112, -70, 686, -100, 52150, 622090, 145250
48132, -128, 771, -118, 14980, 706860, 51100
48152, -206, 1147, -123, -24080, 790720, -111160
48172, -257, 1846, -72, 44730, 852810, -254730
48192, -249, 1967, -64, 132580, 884660, -273560
48212, -196, 1504, -119, 29610, 884380, -137410
48232, -175, 1160, -118, -158760, 860650, 15050
48252, -166, 1017, -57, -169960, 839720, 85120
48272, -150, 960, 7, -6790, 809970, 142100
48292, -130, 894, 46, 118440, 754460, 176540
48312, -112, 897, 69, 103390, 686000, 125790
48332, -94, 1013, 90, 31430, 608230, -15890
48352, -72, 1192, 111, -6370, 520380, -165760
48372, -63, 1308, 123, -3150, 420140, -209020
48392, -63, 1218, 113, 4620, 304920, -117740
48412, -50, 1001, 109, -8540, 189560, -5180
48432, -40, 893, 111, -16030, 83510, 10360
48452, -37, 871, 101, -9170, -14070, -68390
48472, -38, 917, 84, -13300, -105560, -161700
48492, -43, 1002, 60, -25060, -193830, -211750
48512, -74, 1140, 19, -28770, -274400, -219660
48532, -73, 1412, 34, -17640, -343840, -197190
48552, -100, 1543, 40, 16590, -396970, -179480
48572, -76, 1224, 20, 23870, -439530, -127190
48592, -57, 942, 9, -62790, -468580, -89180
48612, -58, 697, -20, -158480, -497910, 980
48632, -54, 546, -24, -129500, -544880, 86030
48652, -31, 700, -14, -67620, -556570, 24290
48672, -28, 858, -19, -41020, -553210, -58100
48692, -12, 834, -36, -57540, -531790, -99260
48712, -13, 866, -76, -21700, -494970, -111650
48732, -12, 1203, -56, 165340, -461860, -107730
48752, -16, 1393, 7, 291060, -414610, -99680
48772, 10, 1271, 35, 203770, -364980, -82390
48792, 0, 1202, -53, 19670, -318150, -26040
48812, -15, 1382, -84, -22470, -248990, -29540
48832, -33, 1537, -30, 129360, -151900, -146580
48852, 20, 1431, 65, 185430, -70000, -215530
48872, 61, 892, 22, 41790, -22820, -92680
48892, 60, 545, -24, -107870, 21140, 87150
48912, 53, 359, -74, -116480, 81690, 130900
48932, -20, 475, -99, 37240, 161210, -8470
48952, -124, 1022, -64, 313670, 237720, -274190
48972, -150, 1896, 94, 470610, 283710, -495180
48992, -72, 1997, 70, 280560, 279020, -479780
49012, -32, 1360, -80, -137900, 255080, -159460
49032, -17, 774, -59, -188020, 267960, 166460
49052, -14, 634, -22, 101500, 296870, 233940
49072, -32, 717, 28, 345590, 313250, 115220
49092, -42, 968, 105, 383600, 315980, -68460
49112, -25, 1214, 126, 232470, 298480, -222320
49132, -16, 1305, 67, -350, 258510, -249200
49152, -23, 1143, 34, -110600, 200200, -89390
49172, -26, 950, 74, -15050, 139720, 146160
49192, -14, 833, 106, 108150, 86100, 250110
49212, -3, 779, 112, 69720, 42770, 153020
49232, 7, 797, 87, -101780, 6090, -41790
49252, 5, 906, 54, -250320, -34370, -184730
49272, -11, 1143, 26, -274890, -83510, -207970
49292, -48, 1502, 38, -182980, -129360, -142240
49312, -70, 1682, 71, -100870, -157360, -67690
49332, -55, 1454, 0, -193620, -182560, -27090
49352, -46, 1294, -63, -370090, -210000, 11690
49372, -41, 1352, -44, -386890, -220010, 36260
49392, -37, 1544, 23, -242270, -204680, 3990
49412, -36, 1597, 17, -172830, -182420, -34790
49432, -43, 1448, -64, -285110, -172410, 20440
49452, -26, 1259, -78, -372470, -160650, 128660
49472, 4, 1147, -13, -272930, -124740, 156730
49492, 24, 1086, 19, -137830, -73430, 104370
49512, 29, 980, -7, -147070, -29470, 79030
49532, 33, 837, -38, -226590, 10150, 101500
49552, 42, 708, -32, -222250, 53410, 118090
49572, 43, 687, -10, -106470, 103320, 103460
49592, 38, 717, 7, 18410, 156240, 76230
49612, 23, 768, 11, 68390, 209510, 49910
49632, 6, 840, 5, 59150, 259560, 14630
49652, -5, 930, 12, 62720, 297710, -26880
49672, -11, 1035, 31, 115500, 318360, -35280
49692, -29, 1146, 44, 181440, 319760, 19460
49712, -49, 1230, 47, 211260, 307510, 98560
49732, -59, 1308, 54, 211190, 289520, 128310
49752, -61, 1424, 72, 212520, 265230, 96950
49772, -66, 1515, 88, 218750, 227500, 80710
49792, -78, 1516, 84, 207480, 175070, 128870
49812, -71, 1414, 83, 187600, 115710, 196210
49832, -68, 1411, 81, 188720, 56770, 217000
49852, -82, 1558, 86, 217070, -3850, 199850
49872, -86, 1611, 92, 250460, -69370, 180110
49892, -78, 1441, 92, 258440, -139020, 169540
49912, -76, 1230, 82, 237370, -213640, 188720
49932, -77, 1113, 67, 223370, -290150, 217280
49952, -81, 1082, 57, 228130, -362180, 185220
49972, -83, 1051, 42, 216580, -429030, 79590
49992, -85, 973, 23, 178290, -495390, -22190
50012, -91, 866, 8, 146300, -563080, -48370
50032, -96, 775, 0, 134330, -627620, -19110
50052, -101, 739, -15, 110810, -681730, 5600
50072, -100, 724, -41, 42700, -718970, 1470
50092, -91, 713, -69, -51940, -737940, -13090
50112, -72, 721, -90, -118300, -739060, -18550
50132, -41, 793, -90, -100030, -725340, -10290
50152, -14, 951, -72, 8610, -695240, 8540
50172, -3, 1176, -47, 144760, -645330, 41090
50192, -10, 1401, -51, 232890, -577920, 96460
50212, -6, 1503, -76, 244300, -492240, 159180
50232, 22, 1427, -73, 226100, -383740, 175210
50252, 43, 1370, -63, 236040, -253400, 129570
50272, 22, 1532, -85, 263550, -115150, 103880
50292, -37, 1798, -106, 289520, 22890, 139580
50312, -63, 1846, -85, 321510, 169190, 175700
50332, -71, 1672, -91, 320390, 321090, 166600
50352, -108, 1559, -151, 226730, 457520, 181510
50372, -158, 1497, -193, 102690, 576310, 269850
50392, -187, 1379, -182, 53620, 691880, 355320
50412, -195, 1193, -182, 58660, 806120, 369880
50432, -197, 994, -210, 2730, 902440, 331100
50452, -207, 845, -230, -125370, 974470, 271390
50472, -227, 782, -221, -185360, 1073800, 145250
50492, -249, 746, -200, -96600, 1100190, 131180
50512, -260, 711, -175, -18900, 1108380, 137690
50532, -259, 695, -141, 37100, 1096200, 137970
50552, -241, 746, -88, 86590, 1057980, 140280
50572, -211, 819, -15, 115500, 988680, 169680
50592, -181, 898, 43, 82250, 888300, 224350
50612, -160, 1025, 79, -16240, 763420, 253820
50632, -150, 1248, 105, -113680, 619290, 200900
50652, -132, 1515, 162, -146860, 458010, 80010
50672, -127, 1614, 187, -186620, 274470, 32760
50692, -175, 1541, 118, -300720, 61950, 139650
50712, -209, 1483, 71, -352660, -157150, 247450
50732, -213, 1595, 90, -264250, -351260, 196070
50752, -278, 1778, 33, -208250, -528430, 97790
50772, -349, 1738, -60, -214620, -705740, 161840
50792, -358, 1473, -41, -89390, -861420, 311080
50812, -383, 1260, -46, 76300, -989380, 371630
50832, -413, 1059, -120, 100660, -1112790, 359800
50852, -417, 890, -200, 84210, -1221570, 296660
50872, -427, 844, -253, 107660, -1302210, 149380
50892, -444, 877, -294, 108290, -1360100, -42350
50912, -449, 889, -329, 51590, -1403010, -183330
50932, -435, 843, -355, -20230, -1427510, -231630
50952, -388, 767, -363, -47530, -1429750, -206010
50972, -326, 702, -351, -17920, -1404690, -150990
50992, -250, 692, -323, 45990, -1349110, -101640
51012, -175, 737, -292, 114100, -1262940, -76300
51032, -113, 862, -265, 159740, -1145270, -85750
51052, -82, 1127, -244, 181370, -999250, -150290
51072, -66, 1481, -213, 185640, -830550, -277130
51092, -7, 1659, -160, 170240, -647710, -395920
51112, 53, 1530, -115, 126910, -459760, -367780
51132, 63, 1326, -122, 64120, -268450, -205170
51152, 27, 1215, -150, 7980, -67690, -126910
51172, -39, 1312, -157, 7630, 148680, -257670
51192, -84, 1570, -156, 66080, 367010, -442890
51212, -124, 1745, -195, 111090, 566020, -444850
51232, -188, 1524, -282, 93660, 747320, -272720
51252, -264, 1265, -345, 70910, 926590, -102900
51272, -347, 1231, -368, 137200, 1100470, -22820
51292, -420, 1289, -375, 234780, 1249990, 56700
51312, -476, 1207, -414, 229040, 1367940, 164430
51332, -504, 1018, -458, 97090, 1463630, 233030
51352, -529, 883, -468, -37030, 1539090, 229460
51372, -551, 797, -467, -89740, 1589350, 220990
51392, -568, 744, -453, -90510, 1611610, 237720
51412, -569, 801, -400, -47740, 1606990, 252840
51432, -544, 949, -321, 55720, 1570730, 266210
51452, -497, 1094, -216, 173810, 1501780, 296730
51472, -435, 1164, -96, 213290, 1407000, 315420
51492, -337, 1169, 26, 134540, 1285900, 247590
51512, -227, 1192, 113, -29050, 1127070, 90370
51532, -170, 1274, 140, -212870, 922390, -14560
51552, -165, 1338, 139, -342650, 677110, 7560
51572, -157, 1326, 206, -325500, 410830, 65100
51592, -155, 1408, 250, -190890, 150080, 28350
51612, -210, 1567, 156, -183400, -111440, -76580
51632, -286, 1541, 13, -331450, -377440, -123130
51652, -340, 1358, 2, -354270, -628530, -81270
51672, -443, 1349, -47, -185500, -853370, 3220
51692, -550, 1287, -174, -93870, -1068200, 103950
51712, -594, 1080, -281, -110390, -1266720, 195230
51732, -609, 917, -353, -79310, -1424920, 207410
51752, -628, 868, -412, 20860, -1543430, 144620
51772, -651, 917, -461, 106120, -1631560, 45640
51792, -657, 978, -500, 112840, -1691130, -65730
51812, -631, 964, -522, 39760, -1720390, -151060
51832, -567, 891, -524, -41650, -1716680, -187950
51852, -475, 801, -493, -67410, -1679230, -185710
51872, -363, 726, -441, -37450, -1608460, -169540
51892, -261, 721, -390, 21350, -1510180, -153020
51912, -173, 816, -338, 81130, -1387610, -146300
51932, -112, 1042, -282, 121100, -1239490, -165340
51952, -70, 1375, -239, 124530, -1065960, -228200
51972, -13, 1619, -199, 83090, -871990, -325360
51992, 54, 1583, -151, 22960, -663040, -381360
52012, 77, 1395, -119, -14350, -443100, -301980
52032, 71, 1210, -142, -49630, -221900, -134400
52052, 38, 1101, -170, -116060, -2170, -66080
52072, -26, 1187, -181, -151340, 225260, -183260
52092, -94, 1399, -195, -95200, 456890, -345800
52112, -180, 1467, -259, -8400, 671370, -361760
52132, -267, 1280, -350, 8750, 860790, -244930
52152, -357, 1183, -397, -8330, 1039360, -139440
52172, -437, 1230, -412, 58310, 1209250, -91210
52192, -501, 1217, -439, 161700, 1353100, -1610
52212, -546, 1081, -490, 164360, 1462440, 130130
52232, -580, 971, -507, 59990, 1548330, 218610
52252, -605, 918, -499, -28980, 1614340, 230090
52272, -616, 859, -484, -48510, 1655640, 227710
52292, -615, 823, -449, -49210, 1670270, 235340
52312, -591, 882, -371, -27720, 1660680, 218540
52332, -530, 988, -261, 135870, 1544480, 217630
52352, -459, 1041, -158, 128170, 1434580, 258790
52372, -382, 1092, -61, 40600, 1293740, 248290
52392, -298, 1184, 52, -51520, 1122520, 153790
52412, -216, 1277, 152, -123620, 916370, 50120
52432, -165, 1323, 191, -215320, 674100, 16170
52452, -151, 1313, 189, -292250, 406420, 26180
52472, -151, 1298, 205, -275660, 133630, 6790
52492, -180, 1398, 204, -219870, -135030, -50540
52512, -253, 1545, 127, -243670, -401800, -83860
52532, -336, 1534, 13, -295680, -660520, -52150
52552, -409, 1365, -56, -245420, -897890, 28770
52572, -505, 1264, -135, -130620, -1110480, 116200
52592, -584, 1184, -232, -52430, -1300880, 179900
52612, -628, 1045, -329, 1470, -1460830, 191590
52632, -652, 928, -408, 66290, -1584800, 142310
52652, -676, 915, -465, 118440, -1673840, 43680
52672, -691, 946, -505, 102830, -1732570, -72800
52692, -678, 927, -536, 15960, -1760640, -158130
52712, -628, 837, -546, -74760, -1755670, -184310
52732, -545, 739, -533, -104300, -1716610, -172480
52752, -438, 674, -499, -70770, -1642060, -162260
52772, -330, 689, -448, -2310, -1534050, -176610
52792, -223, 812, -385, 65310, -1396500, -219240
52812, -147, 1032, -322, 102690, -1233330, -279860
52832, -85, 1345, -263, 102340, -1049440, -345310
52852, -22, 1605, -206, 69510, -848260, -381010
52872, 42, 1622, -152, 12880, -631890, -331660
52892, 75, 1427, -137, -63770, -405020, -194390
52912, 86, 1205, -157, -151550, -173110, -85750
52932, 62, 1095, -180, -205100, 65450, -115220
52952, -5, 1199, -192, -177170, 311150, -241500
52972, -94, 1432, -215, -89320, 551250, -326900
52992, -181, 1488, -260, -27930, 772800, -303590
53012, -256, 1278, -344, -39970, 975170, -221900
53032, -365, 1126, -414, -39900, 1162000, -152040
53052, -452, 1149, -453, 44170, 1327550, -65240
53072, -537, 1180, -494, 125790, 1460200, 72240
53092, -611, 1129, -551, 111300, 1565830, 208810
53112, -662, 1005, -574, 35910, 1655850, 254450
53132, -687, 912, -554, -840, 1729070, 214200
53152, -692, 822, -536, -420, 1771280, 183750
53172, -690, 795, -505, -18690, 1780800, 177240
53192, -668, 919, -432, -2520, 1758610, 171290
53212, -611, 1085, -324, 81760, 1694420, 204820
53232, -540, 1146, -217, 132370, 1589840, 289940
53252, -440, 1115, -94, 73430, 1454880, 333690
53272, -326, 1111, 45, -23030, 1292620, 240590
53292, -221, 1160, 161, -87570, 1096200, 77630
53312, -166, 1220, 198, -169260, 859390, -8960
53332, -151, 1241, 199, -272790, 589190, -22960
53352, -150, 1254, 232, -277900, 305550, -44870
53372, -178, 1374, 234, -180040, 22470, -95130
53392, -250, 1491, 142, -154560, -262360, -131180
53412, -334, 1425, 20, -234640, -542500, -123970
53432, -410, 1253, -59, -265440, -801920, -79660
53452, -504, 1147, -141, -194110, -1035090, -15890
53472, -602, 1077, -246, -122290, -1247750, 53200
53492, -673, 974, -364, -78890, -1435000, 105980
53512, -712, 902, -446, -31570, -1586130, 107730
53532, -734, 888, -512, 15820, -1697570, 52150
53552, -738, 917, -552, 33530, -1772470, -33460
53572, -714, 924, -578, 4900, -1812510, -115990
53592, -652, 876, -586, -50610, -1817270, -166600
53612, -556, 816, -571, -79520, -1786540, -176120
53632, -442, 815, -533, -40880, -1719410, -168420
53652, -334, 916, -466, 58100, -1616650, -176190
53672, -238, 1066, -382, 159180, -1483300, -207690
53692, -149, 1205, -310, 194180, -1327900, -232050
53712, -69, 1314, -242, 157360, -1153670, -220290
53732, 7, 1326, -188, 88060, -958020, -198240
53752, 69, 1247, -160, 1400, -742420, -200830
53772, 98, 1198, -154, -85890, -512750, -207550
53792, 82, 1266, -155, -129150, -274470, -200620
53812, 41, 1374, -154, -108640, -29680, -202860
53832, 6, 1315, -162, -64610, 217140, -224910
53852, -42, 1118, -214, -61110, 454860, -223160
53872, -125, 964, -285, -103110, 674170, -171640
53892, -231, 951, -346, -105560, 876120, -109830
53912, -339, 1042, -378, -10920, 1060500, -63350
53932, -426, 1099, -407, 121170, 1223320, -3850
53952, -508, 1042, -453, 170520, 1362130, 65660
53972, -561, 988, -482, 110390, 1480640, 95410
53992, -599, 1000, -488, 29820, 1578150, 74690
54012, -621, 981, -488, -4970, 1647590, 65520
54032, -633, 942, -479, -28140, 1685600, 101360
54052, -627, 968, -437, -48720, 1695260, 139090
54072, -597, 1032, -358, -12670, 1676570, 161630
54092, -541, 1057, -267, 64960, 1624700, 207270
54112, -471, 1054, -178, 98910, 1538600, 271880
54132, -391, 1090, -69, 66220, 1423030, 293090
54152, -300, 1167, 54, 24570, 1280580, 234430
54172, -216, 1208, 158, -89250, 899430, 59920
54192, -150, 1168, 190, -203210, 659330, 25900
54212, -128, 1098, 203, -250740, 397320, 24850
54232, -132, 1070, 218, -192080, 126490, 28210
54252, -157, 1144, 217, -120330, -142030, 1400
54272, -215, 1258, 150, -139720, -401660, -48300
54292, -288, 1263, 37, -209580, -648060, -69090
54312, -356, 1132, -51, -192220, -876330, -33600
54332, -425, 1023, -111, -76300, -1082060, 20790
54352, -507, 989, -193, 7980, -1265810, 59780
54372, -580, 983, -287, 14980, -1422120, 70560
54392, -624, 984, -376, -11760, -1540700, 33320
54412, -638, 991, -450, -37660, -1618330, -51030
54432, -623, 996, -487, -55090, -1658440, -143220
54452, -582, 980, -500, -58800, -1665860, -200130
54472, -515, 942, -493, -35420, -1643390, -202510
54492, -430, 921, -460, 29820, -1592640, -159810
54512, -339, 961, -408, 122360, -1513610, -102830
54532, -260, 1056, -344, 190960, -1406650, -61180
54552, -182, 1125, -288, 188860, -1273300, -44940
54572, -105, 1118, -248, 124950, -1115030, -56280
54592, -28, 1061, -211, 52010, -934640, -101640
54612, 38, 1019, -173, 9730, -737170, -161490
54632, 82, 1037, -138, 2940, -531510, -201040
54652, 94, 1140, -115, 14280, -323540, -202720
54672, 80, 1233, -111, 20300, -113960, -182420
54692, 60, 1214, -116, 3780, 97580, -162680
54712, 28, 1104, -146, -30800, 306670, -145810
54732, -29, 1025, -189, -48720, 507290, -120050
54752, -106, 1036, -232, -18060, 695240, -88480
54772, -191, 1097, -264, 52500, 868420, -58450
54792, -266, 1117, -284, 110460, 1025080, -27160
54812, -324, 1057, -315, 106750, 1161090, 5040
54832, -372, 995, -345, 53480, 1273370, 39480
54852, -418, 993, -373, 1960, 1359960, 83090
54872, -468, 1019, -398, -23380, 1422120, 133140
54892, -504, 1020, -392, -20720, 1465590, 161770
54912, -515, 1006, -352, 16660, 1492050, 149450
54932, -495, 983, -295, 67130, 1493450, 120680
54952, -459, 969, -237, 81410, 1463280, 106750
54972, -410, 1009, -172, 62160, 1400490, 109900
54992, -354, 1090, -93, 44170, 1305640, 128170
55012, -298, 1147, -12, 34300, 1179430, 164430
55032, -235, 1134, 63, 12810, 1026550, 195650
55052, -176, 1087, 128, -30450, 852950, 187600
55072, -132, 1073, 173, -78120, 659260, 145810
55092, -110, 1109, 198, -112140, 447930, 102270
55112, -112, 1148, 203, -125720, 223370, 76580
55132, -132, 1156, 184, -125020, -6860, 63770
55152, -175, 1140, 135, -126980, -236320, 61040
55172, -225, 1115, 69, -134400, -458570, 68460
55192, -280, 1087, 0, -121310, -666330, 76930
55212, -330, 1066, -63, -77350, -853440, 74550
