T [ms],AccX [mg],AccY [mg],AccZ [mg],GyroX [mdps],GyroY [mdps],GyroZ [mdps]
142801, 578, 850, -11, -7210, -22960, -27160
142821, 519, 848, -1, -6160, -20160, -24920
142841, 549, 830, -44, -15470, -29610, -34720
142861, 529, 820, -52, -32340, -49420, -46690
142881, 552, 793, -10, -32900, -53200, -37940
142901, 585, 860, -60, -21910, -56280, -13440
142921, 480, 823, -16, -18690, -53130, 20720
142941, 555, 834, -21, -30380, -23590, 21840
142961, 559, 918, 41, -36260, -17920, -2310
142981, 596, 838, -22, -34930, -32130, -11410
143001, 497, 823, -37, -47390, -62580, 5950
143021, 510, 856, -10, -45640, -45080, 14630
143041, 454, 936, 55, -38290, -1050, -1260
143061, 517, 752, -18, -53760, 11060, 1260
143081, 557, 857, 52, -51730, -20930, 17710
143101, 546, 807, 74, -25620, -19040, 13860
143121, 558, 889, 93, -16380, -31850, 15610
143141, 592, 936, 39, -10150, -28140, 16870
143161, 531, 852, 117, -13090, -35350, 26740
143181, 576, 782, 34, -13650, -60830, 59430
143201, 601, 718, -26, -5810, -105210, 81200
143221, 651, 826, 40, 6580, -95340, 58450
143241, 644, 868, -31, 12040, -28140, 20860
143261, 641, 795, 9, 1190, 7070, 3360
143281, 570, 795, 10, -7630, 34020, 1960
143301, 591, 789, 7, -4410, 24850, 17360
143321, 614, 738, 17, 3080, -13160, 40250
143341, 613, 797, 0, 12320, -46480, 42630
143361, 581, 736, 25, 13370, -50680, 33250
143381, 614, 757, -14, 5740, -22120, 12600
143401, 574, 786, 1, -3850, -770, -8750
143421, 550, 777, 54, -5250, -280, -13580
143441, 585, 680, -230, -5040, -26180, -7490
143461, 532, 768, 125, -14350, -86870, 4060
143481, 561, 836, 126, -9310, -95480, -10080
143501, 541, 840, 129, -84490, -140980, -6790
143521, 588, 941, 61, -137480, -224630, 8750
143541, 590, 940, 73, -194880, -241290, 4690
143561, 533, 945, -99, -246050, -309960, 52570
143581, 514, 833, 90, -269360, -328440, 77980
143601, 530, 1005, 16, -312200, -370720, 48720
143621, 655, 1066, -105, -285320, -497630, 39060
143641, 574, 962, -181, -289870, -497630, 53410
143661, 419, 918, -19, -373730, -370440, 27580
143681, 383, 858, -7, -328860, -390670, -24500
143701, 512, 992, -193, -232750, -459760, -51940
143721, 411, 828, -24, -237930, -409920, -27160
143741, 339, 533, -202, -286930, -353570, 50190
143761, 76, 730, -532, -266280, -324870, 70420
143781, 578, 1287, -688, -73150, -242830, -93030
143801, 456, 909, -152, 71540, 28840, -49210
143821, 501, 832, -50, 95480, 231490, 90860
143841, 507, 781, 67, 119070, 287840, 98560
143861, 558, 803, 56, 81830, 190470, 54110
143881, 586, 833, -99, 11970, 22540, 11480
143901, 621, 808, -75, -1820, -32200, 6300
143921, 601, 786, -63, 9380, -700, 15540
143941, 634, 785, -96, 2450, -7000, 17780
143961, 606, 743, -110, 8540, -16170, 7420
143981, 600, 834, -48, 17500, 6090, 5530
144001, 575, 846, -15, 18480, 26810, 6790
144021, 638, 883, -61, 3570, 14840, 2310
144041, 582, 762, 5, -19810, -210, 3850
144061, 573, 772, 37, -37030, -20090, -3220
144081, 587, 844, -41, -48020, -66500, -23940
144101, 617, 873, -106, -57330, -90790, -36260
144121, 558, 782, -53, -49490, -60410, -23030
144141, 565, 824, 17, -34510, -18620, -5390
144161, 555, 830, 13, -26250, -22750, -4060
144181, 509, 785, 48, -19740, -34790, -7420
144201, 607, 889, -135, -11760, -52080, -4690
144221, 560, 793, -78, -13230, -52010, -5740
144241, 561, 813, -68, -23310, -40950, -7840
144261, 558, 837, -48, -23520, -37730, -5320
144281, 512, 914, -33, -23590, -30940, -9800
144301, 566, 852, -31, -35840, -50120, -13860
144321, 590, 833, -63, -49280, -59360, -10850
144341, 553, 804, -48, -45990, -43120, -5460
144361, 548, 822, -44, -36330, -17990, 3080
144381, 551, 849, 3, -36680, -15750, 5740
144401, 558, 867, 12, -33880, -4690, 9520
144421, 563, 849, -1, -35700, -7840, 8120
144441, 578, 855, 24, -39970, -7280, 9310
144461, 570, 823, 90, -37800, -2450, 7280
144481, 547, 803, 72, -38710, -4270, 9730
144501, 573, 800, 45, -37030, -13720, 6230
144521, 557, 785, 90, -31920, -15960, 7490
144541, 581, 849, 123, -18410, -5110, 10220
144561, 570, 861, 134, -14910, -2450, 4060
144581, 557, 857, 123, -15400, -1260, 1540
144601, 552, 812, 135, -11830, -4480, 1540
144621, 550, 813, 114, -4200, -6230, 1330
144641, 563, 823, 38, -3080, -11410, -2380
144661, 549, 828, 40, -980, -12180, -5320
144681, 523, 867, 102, 8330, -3640, -3500
144701, 507, 954, 103, 8260, -1190, -3220
144721, 541, 887, 56, -11550, -28770, -7350
144741, 577, 805, -22, -43190, -84420, -9380
144761, 599, 775, -76, -61180, -110110, -6510
144781, 549, 805, 7, -35980, -68880, 980
144801, 519, 756, 11, 1750, -17430, 17010
144821, 563, 761, -42, 10710, -11550, 18830
144841, 476, 574, -35, 24360, -4200, 5530
144861, 575, 818, -42, 47180, 60480, -7280
144881, 604, 915, 4, 108850, 127050, -43120
144901, 589, 940, 54, 154070, 184660, -44240
144921, 544, 845, 88, 162960, 208530, -22120
144941, 515, 884, 121, 151200, 181020, 13230
144961, 519, 909, 128, 122920, 125160, 21140
144981, 574, 948, 82, 70140, 49000, 35070
145001, 594, 944, 59, 11410, -18060, 39760
145021, 562, 884, 20, -32970, -52570, 31220
145041, 550, 861, -15, -44170, -69300, 27720
145061, 600, 976, 10, -37730, -48300, 5110
145081, 559, 841, 27, -38150, 13020, -36960
145101, 534, 775, 41, -44030, 54950, -2590
145121, 512, 745, 37, -44030, 70910, 19040
145141, 493, 695, 62, -28350, 51380, 12390
145161, 594, 866, 28, -28840, 33460, 14070
145181, 528, 782, 49, -12110, -5460, -2380
145201, 531, 780, 58, -23100, -27300, 7910
145221, 532, 785, 70, -17920, -58800, 22540
145241, 578, 844, 45, -2170, -102830, 38850
145261, 618, 865, 25, 13510, -139440, 35490
145281, 636, 879, 2, 16310, -145180, 28070
145301, 621, 869, 21, -9940, -104440, 23030
145321, 624, 870, 18, -39340, -45430, 12740
145341, 616, 857, 15, -25620, 8750, -4760
145361, 611, 879, 17, -21070, 41370, -6300
145381, 558, 738, 18, -21700, 67900, 6790
145401, 508, 746, 47, -34160, 85960, -3710
145421, 537, 761, 37, -46970, 86170, -28910
145441, 557, 833, 70, -49770, 56630, -20090
145461, 559, 834, 72, -48650, 14560, -19530
145481, 548, 790, 59, 2100, -73360, -20160
145501, 551, 757, 21, 27720, -123130, -19110
145521, 567, 779, 18, 27650, -128240, -20440
145541, 614, 876, 18, 28420, -117810, -20300
145561, 633, 926, 15, 21350, -88410, 770
145581, 663, 895, -18, 14350, -51590, 67270
145601, 584, 820, 67, -16030, 23170, 80430
145621, 570, 831, 76, -8610, 55580, 26110
145641, 591, 845, 28, 49490, 6510, -17780
145661, 606, 851, -10, 57400, 15400, -24710
145681, 496, 762, 90, 11970, 90160, -28140
145701, 606, 859, 15, -37170, 159110, -40810
145721, 517, 806, 100, 1750, 118300, -48090
145741, 567, 802, 49, 10430, 83440, -30870
145761, 559, 780, 47, 30940, 27510, -8190
145781, 568, 810, 43, 37170, -1610, -10990
145801, 579, 858, 56, 38710, -16940, -13090
145821, 599, 866, 35, 34090, -33390, -3990
145841, 601, 843, 27, 21770, -40530, 38010
145861, 588, 828, 41, -5110, -16100, 55090
145881, 593, 831, 45, -7350, -3010, 45290
145901, 625, 864, 19, 23520, -14840, 16030
145921, 638, 894, 11, 49770, -17500, -15120
145941, 619, 885, 25, 32200, 25900, -25970
145961, 572, 820, 40, 12320, 68180, -16800
145981, 545, 783, 42, 11130, 83790, -5530
146001, 520, 735, 45, 22750, 80500, 8260
146021, 519, 715, 37, 39830, 70350, 22890
146041, 544, 746, 32, 57680, 62580, 20370
146061, 575, 818, 38, 66360, 66640, 3080
146081, 602, 884, 46, 65170, 77420, -10780
146101, 633, 924, 28, 60970, 82950, -1400
146121, 592, 842, 40, 49350, 89810, 24080
146141, 595, 861, 36, 24710, 115920, 27020
146161, 567, 842, 49, 24920, 130900, 770
146181, 577, 807, 16, 70140, 107240, 13860
146201, 584, 800, 4, 102690, 97440, 49910
146221, 528, 738, 43, 88480, 132440, 52990
146241, 568, 798, 28, 76720, 161070, 15050
146261, 586, 891, 36, 100520, 151620, -34860
146281, 601, 880, 23, 145810, 115290, -31990
146301, 601, 857, 11, 148400, 119350, 16380
146321, 550, 803, 40, 94920, 174370, 31640
146341, 505, 748, 75, 59850, 211400, 18340
146361, 536, 779, 52, 84000, 184030, 5180
146381, 551, 798, 48, 128380, 126140, -4550
146401, 593, 844, 19, 142520, 96740, -2940
146421, 589, 853, 32, 127330, 99750, -4550
146441, 561, 834, 66, 85750, 137620, 1120
146461, 579, 847, 54, 68950, 143640, 8190
146481, 600, 858, 39, 85890, 107380, 10780
146501, 596, 879, 52, 84840, 88830, 3080
146521, 557, 839, 84, 57540, 97650, -5740
146541, 562, 826, 68, 47530, 85820, 4620
146561, 577, 813, 34, 72870, 28770, 19460
146581, 562, 777, 31, 79030, -4200, 29330
146601, 535, 760, 58, 40950, 19320, 25970
146621, 542, 791, 77, -910, 48860, 6860
146641, 582, 847, 55, -5600, 32200, -14210
146661, 598, 869, 44, 12250, -13230, -21770
146681, 567, 830, 59, 5250, -28980, -11410
146701, 543, 793, 67, -21630, -22680, 5950
146721, 547, 781, 51, -28210, -39410, 19390
146741, 562, 785, 32, -17990, -74060, 24220
146761, 568, 796, 38, -21630, -88620, 16870
146781, 567, 821, 53, -48440, -72170, -2800
146801, 575, 855, 61, -73570, -56560, -24640
146821, 604, 889, 48, -75040, -67620, -28630
146841, 621, 901, 36, -60690, -96390, -11970
146861, 625, 902, 32, -54670, -112420, 6160
146881, 600, 868, 40, -62230, -107590, 12670
146901, 576, 828, 38, -70980, -96110, 15540
146921, 572, 808, 33, -70910, -93730, 18970
146941, 566, 799, 33, -67830, -94430, 18620
146961, 562, 804, 44, -72660, -84980, 13580
146981, 579, 836, 45, -78890, -72800, 7140
147001, 608, 871, 36, -70910, -76300, 5110
147021, 628, 893, 25, -52850, -90860, 7980
147041, 612, 873, 29, -45360, -91070, 8820
147061, 579, 827, 40, -52150, -71750, 5810
147081, 547, 777, 41, -56280, -53480, 7280
147101, 532, 742, 31, -47180, -51240, 14840
147121, 532, 713, 18, -28140, -59220, 22820
147141, 523, 677, 11, -4200, -67270, 29330
147161, 547, 755, 26, -17920, 7910, -25480
147181, 574, 854, 47, -14140, 40250, -35700
147201, 612, 896, 41, 17570, 36400, 4480
147221, 645, 890, 9, 54320, 23100, 53410
147241, 636, 866, 0, 62790, 43820, 47950
147261, 576, 819, 28, 40250, 99890, 12110
147281, 534, 791, 57, 29750, 133560, 140
147301, 516, 732, 57, 53760, 116270, 18550
147321, 520, 660, 17, 87080, 86590, 12810
147341, 576, 806, 8, 86170, 101290, -75950
147361, 570, 894, 42, 92050, 121660, -132020
147381, 647, 1003, 3, 119070, 121380, -67690
147401, 600, 859, 24, 97650, 153370, 75670
147421, 566, 763, 55, 63000, 183400, 128450
147441, 582, 826, 26, 90860, 161700, 16170
147461, 624, 949, 0, 147140, 127960, -77350
147481, 587, 885, 11, 147000, 157710, -24150
147501, 534, 755, 30, 105700, 212800, 71820
147521, 526, 728, 41, 92470, 233520, 75600
147541, 568, 813, 15, 130970, 204050, 700
147561, 569, 882, 30, 138950, 207620, -52290
147581, 573, 878, 43, 116130, 232610, -26670
147601, 574, 830, 36, 122990, 214830, 37730
147621, 554, 772, 33, 137480, 191030, 58730
147641, 523, 772, 61, 130970, 188370, 14140
147661, 516, 799, 83, 120400, 176050, -30730
147681, 540, 812, 67, 125090, 130900, -22960
147701, 571, 813, 43, 133980, 75460, 19250
147721, 558, 797, 72, 110180, 60550, 34160
147741, 577, 871, 81, 68040, 65940, 1400
147761, 583, 903, 89, 55580, 31780, -19390
147781, 616, 889, 54, 60760, -24570, 18130
147801, 636, 875, 39, 56000, -65520, 41510
147821, 612, 929, 64, 13650, -63350, -20790
147841, 565, 925, 98, -31150, -65660, -72030
147861, 504, 785, 88, -49000, -101640, -7280
147881, 516, 725, 39, -38010, -178990, 78330
147901, 521, 703, 34, -48720, -224210, 84700
147921, 524, 789, 59, -103040, -209370, 7910
147941, 505, 850, 76, -155540, -195090, -83160
147961, 504, 852, 66, -165690, -235130, -73220
147981, 585, 882, -3, -144970, -310100, 19320
148001, 589, 867, 4, -145950, -344540, 78120
148021, 585, 898, 21, -201740, -296660, 56280
148041, 576, 904, 27, -220360, -284200, 16310
148061, 556, 848, 9, -207480, -298900, 14070
148081, 554, 852, 2, -208040, -306740, 14630
148101, 499, 772, 36, -226170, -289170, 14910
148121, 526, 793, 13, -217770, -285460, 32200
148141, 552, 843, 2, -175280, -316820, 26530
148161, 579, 848, -10, -158900, -320670, 24430
148181, 591, 845, -1, -164360, -293020, 48020
148201, 596, 852, 14, -173950, -247590, 52150
148221, 601, 896, 27, -169750, -216090, 17500
148241, 614, 922, 19, -140210, -212100, -12950
148261, 629, 893, -7, -92820, -226800, 5320
148281, 616, 852, -6, -62790, -219100, 41300
148301, 592, 817, 0, -65030, -168980, 50050
148321, 564, 788, 21, -69300, -112140, 44030
148341, 558, 765, 24, -60410, -72240, 43260
148361, 571, 768, 16, -34300, -56700, 42630
148381, 597, 823, 5, 2520, -49630, 24220
148401, 602, 852, 5, 33530, -31220, -5110
148421, 588, 829, 9, 44730, 7490, 980
148441, 575, 788, 8, 45080, 52780, 42490
148461, 568, 770, 9, 51870, 89040, 70000
148481, 569, 800, 16, 65730, 119630, 52920
148501, 576, 830, 21, 84980, 143220, 16800
148521, 601, 861, 8, 111230, 155190, 6300
148541, 619, 889, -4, 136150, 162680, 13230
148561, 604, 888, -1, 143080, 188090, 13860
148581, 564, 851, 19, 131880, 233310, 10710
148601, 528, 794, 40, 120120, 274120, 17570
148621, 528, 777, 31, 131320, 279510, 27160
148641, 537, 783, 7, 167370, 249900, 19040
148661, 530, 777, 8, 193620, 229880, 2450
148681, 525, 782, 26, 185500, 246890, -7280
148701, 537, 812, 39, 164150, 273840, -16590
148721, 574, 875, 34, 160090, 274820, -29260
148741, 602, 926, 34, 171360, 254170, -39340
148761, 601, 931, 47, 176330, 239050, -37520
148781, 589, 892, 45, 174090, 228270, -20230
148801, 569, 834, 36, 174370, 207550, 1400
148821, 531, 777, 49, 167580, 189420, 11200
148841, 503, 754, 69, 145740, 187040, 1260
148861, 506, 762, 73, 126560, 179200, -17920
148881, 538, 790, 63, 125580, 143850, -24360
148901, 572, 825, 53, 128940, 96950, -11060
148921, 600, 869, 56, 115360, 67970, 2310
148941, 618, 917, 65, 86800, 59990, -3990
148961, 622, 938, 71, 60060, 53270, -21000
148981, 608, 911, 70, 42420, 34160, -25130
149001, 572, 844, 66, 20790, -27020, 13860
149021, 552, 804, 60, 8610, -53970, 26180
149041, 546, 784, 54, -8400, -74200, 24920
149061, 543, 779, 54, -32760, -84910, 17360
149081, 552, 803, 58, -57540, -93660, 2240
149101, 571, 848, 61, -71750, -112420, -18690
149121, 592, 895, 56, -73850, -142240, -28630
149141, 601, 906, 45, -75110, -170450, -15260
149161, 586, 871, 39, -84350, -186200, 12460
149181, 567, 825, 32, -97300, -191100, 31780
149201, 547, 789, 34, -112560, -187390, 30520
149221, 535, 779, 39, -125930, -183540, 13580
149241, 536, 792, 37, -129430, -190260, -5670
149261, 550, 812, 31, -124670, -204190, -14140
149281, 565, 832, 27, -120540, -213360, -10710
149301, 571, 839, 25, -120120, -213010, -140
149321, 579, 843, 20, -120050, -206850, 13860
149341, 584, 842, 20, -119700, -196630, 24710
149361, 583, 833, 21, -120260, -182070, 25620
149381, 580, 830, 27, -117460, -167580, 16870
149401, 588, 846, 26, -105980, -159740, 4550
149421, 600, 865, 20, -88760, -156100, -1400
149441, 600, 862, 18, -74900, -146930, 9800
149461, 589, 830, 16, -67340, -127960, 33460
149481, 583, 806, 18, -61880, -104230, 48440
149501, 580, 801, 19, -53410, -81480, 42210
149521, 580, 813, 21, -40460, -62230, 23730
149541, 582, 818, 22, -25340, -45360, 13510
149561, 589, 825, 20, -8610, -31080, 17990
149581, 601, 839, 14, 8540, -16450, 26460
149601, 602, 842, 15, 20510, 5320, 34230
149621, 590, 826, 22, 24850, 35560, 42910
149641, 575, 801, 25, 30800, 62020, 47530
149661, 569, 794, 22, 46550, 75670, 39200
149681, 574, 804, 16, 65100, 85050, 22820
149701, 576, 819, 20, 75250, 102340, 15120
149721, 581, 830, 23, 78400, 124460, 20510
149741, 582, 834, 22, 82880, 141330, 28840
149761, 574, 825, 23, 89040, 153370, 31710
149781, 564, 812, 32, 93660, 164640, 28070
149801, 569, 821, 34, 101220, 169470, 18410
149821, 580, 843, 25, 114450, 164150, 5390
149841, 577, 838, 23, 120540, 163660, -1400
149861, 553, 810, 35, 110530, 178500, 3010
149881, 534, 780, 46, 97930, 192360, 10710
149901, 538, 783, 46, 100100, 184450, 11620
149921, 564, 812, 39, 112560, 160930, 3500
149941, 580, 842, 41, 117110, 144480, -8890
149961, 591, 869, 44, 108990, 141400, -20160
149981, 604, 890, 47, 98000, 139790, -26530
150001, 605, 893, 48, 90090, 132160, -25270
150021, 588, 869, 56, 82320, 122150, -16240
150041, 564, 828, 62, 74550, 109270, -4340
150061, 550, 794, 58, 72660, 85960, 3710
150081, 546, 775, 51, 72590, 58030, 4620
150101, 543, 773, 53, 63000, 40530, -3220
150121, 545, 789, 62, 44590, 33530, -18130
150141, 560, 824, 66, 27720, 23660, -29400
150161, 586, 861, 63, 19670, 1470, -28420
150181, 608, 886, 54, 17360, -28420, -19110
150201, 608, 882, 50, 11480, -51940, -10290
150221, 583, 848, 53, -3150, -62160, -6510
150241, 556, 806, 54, -21210, -67410, -5950
150261, 538, 776, 54, -34580, -77840, -5460
150281, 531, 768, 53, -43400, -92750, -5460
150301, 541, 786, 49, -50400, -108920, -8470
150321, 580, 882, -18, -49210, -118230, -11550
150341, 575, 861, 19, 194180, 140630, 20300
150361, 590, 949, 36, 252140, 341460, 10290
150381, 622, 963, 96, 218960, 367780, -35840
150401, 647, 997, 41, 237300, 281680, -65100
150421, 603, 920, 72, 191030, 182140, -49910
150441, 536, 833, 70, 99750, 207760, 49140
150461, 518, 747, 73, 61460, 177030, 95690
150481, 510, 721, 79, 38640, 146860, 119070
150501, 518, 741, 80, 34090, 95200, 77070
150521, 560, 839, 77, 23730, 49210, 910
150541, 607, 924, 62, 20370, -3290, -60340
150561, 641, 976, 37, 8400, -46200, -69300
150581, 607, 921, 54, -23730, -62370, -19670
150601, 533, 806, 87, -83020, -43190, 55440
150621, 523, 754, 66, -122640, -47530, 94990
150641, 520, 744, 48, -109270, -108710, 73150
150661, 542, 797, 35, -93590, -166460, 14070
150681, 539, 928, 50, -110880, -184940, -44450
150701, 487, 703, 70, -168350, -155750, -21490
150721, 592, 898, -15, -215600, -131110, 100800
150741, 561, 843, 22, -155960, -211260, 54250
150761, 541, 794, 39, -161700, -201180, 32480
150781, 589, 859, -23, -168140, -187110, 12670
150801, 596, 852, -1, -133490, -206570, -52010
150821, 560, 850, 55, -117880, -145950, -91770
150841, 543, 843, 59, -113330, -146930, -58310
150861, 572, 827, 21, -86940, -186060, 1680
150881, 593, 796, -4, -83300, -191240, 39830
150901, 591, 825, 19, -118370, -138390, 8190
150921, 575, 854, 53, -142520, -92890, -35630
150941, 577, 861, 54, -121730, -105210, -32970
150961, 603, 862, 15, -84000, -145040, -11830
150981, 600, 767, 81, -85120, -155610, 5670
151001, 583, 824, 18, -169120, -200620, 38850
151021, 576, 680, -247, -167720, -214690, -15610
151041, 545, 858, 10, -213780, -73010, -84980
151061, 586, 857, -68, -148330, -75950, -59570
151081, 591, 861, -33, -61250, -121730, -8750
151101, 613, 847, -19, 15890, -161560, 3010
151121, 659, 913, -27, 73360, -166390, 26180
151141, 640, 855, -36, 66640, -108360, 52850
151161, 554, 728, 11, -14630, 14770, 62860
151181, 519, 702, 34, -56420, 92190, 16660
151201, 497, 727, 70, -36470, 102970, -40180
151221, 524, 786, 62, 20440, 61740, -50820
151241, 578, 824, 28, 90160, -2870, -8120
151261, 658, 883, -25, 132580, -31360, 36400
151281, 664, 909, -27, 106260, 23100, 30170
151301, 596, 864, 30, 23100, 146370, -980
151321, 533, 812, 88, -12460, 210980, -21560
151341, 542, 813, 67, 44170, 162750, -24220
151361, 726, 500, 147, 133770, 61250, -11410
151381, 600, 833, 2, 59150, -77910, 27510
151401, 614, 827, 1, -22610, -116760, 53340
151421, 599, 821, 23, -63630, -54180, 30030
151441, 570, 817, 56, -99680, 2100, -16310
151461, 568, 839, 60, -75530, -2800, -46410
151481, 586, 863, 36, -12530, -53480, -52290
151501, 597, 849, 9, 29610, -86870, -19320
151521, 633, 651, -157, 32550, -71890, 36470
151541, 517, 767, 91, -12670, 14560, 51240
151561, 532, 776, 78, -67480, 87850, 70
151581, 584, 834, 47, -50470, 12110, -19600
151601, 612, 870, 20, 2170, -52850, -27090
151621, 657, 864, -19, -6860, -19250, -36470
151641, 618, 817, -4, 700, -8960, -21350
151661, 620, 863, 2, 20230, -12530, 8890
151681, 611, 822, 8, 32270, -4620, 39690
151701, 547, 759, 66, 28910, 31500, 54460
151721, 533, 753, 80, 24010, 50750, 22120
151741, 576, 798, 20, 20020, 6440, -6580
151761, 601, 810, 1, 28210, -34720, -3570
151781, 583, 797, 26, 9590, -5180, 5810
151801, 563, 821, 60, -18830, 50190, -7210
151821, 592, 881, 42, -420, 54950, -33460
151841, 577, 867, 81, 45710, 17780, -20580
151861, 586, 799, 23, 40460, -2660, 30660
151881, 575, 787, 29, -12320, -20720, 43120
151901, 581, 823, 29, -15540, -8890, 5460
151921, 573, 831, 40, -13160, 5040, -30380
151941, 567, 804, 41, -10780, 16030, -18130
151961, 576, 802, 30, 6650, 11480, 8680
151981, 591, 835, 21, 27790, 3290, 6090
152001, 594, 841, 23, 33950, 14140, -4340
152021, 574, 811, 38, 22470, 44170, 4550
152041, 570, 806, 43, 12180, 68250, 10780
152061, 585, 827, 31, 25830, 63840, -6160
152081, 588, 853, 34, 47740, 52500, -26810
152101, 580, 846, 39, 52990, 57610, -25830
152121, 578, 821, 33, 50260, 66990, 490
152141, 573, 800, 31, 52150, 68810, 25200
152161, 560, 792, 40, 48090, 77560, 21350
152181, 555, 805, 55, 40530, 90860, -3500
152201, 569, 825, 45, 46480, 86870, -21280
152221, 585, 836, 32, 63210, 65100, -17990
152241, 579, 827, 30, 68180, 54250, -2590
152261, 564, 811, 47, 53130, 68460, 12180
152281, 561, 812, 55, 34650, 86800, 16310
152301, 574, 824, 49, 32060, 83230, 9870
152321, 584, 838, 43, 41720, 63000, 3500
152341, 593, 857, 43, 47390, 47390, -2590
152361, 593, 862, 41, 43890, 42910, -8330
152381, 583, 842, 44, 35280, 44100, -3290
152401, 563, 809, 52, 22050, 48370, 14140
152421, 556, 795, 56, 9030, 50470, 27790
152441, 567, 813, 49, 9100, 38150, 21700
152461, 573, 825, 43, 19460, 14630, 3010
152481, 567, 815, 41, 20930, 70, -7140
152501, 553, 792, 46, 8120, 1190, -700
152521, 548, 784, 52, -7140, 6230, 11060
152541, 560, 802, 53, -15120, 3780, 16240
152561, 584, 836, 51, -15120, -7560, 13720
152581, 606, 869, 42, -9800, -24710, 5600
152601, 608, 876, 38, -6370, -37800, -4690
152621, 589, 854, 44, -13090, -36960, -9870
152641, 568, 821, 48, -25480, -28210, 9100
152661, 565, 804, 49, -26600, -38010, 19880
152681, 577, 817, 38, -17360, -52920, 13930
152701, 588, 834, 32, -15330, -56210, -1680
152721, 577, 825, 40, -27160, -42770, -5740
152741, 567, 816, 49, -36890, -32690, 1260
152761, 580, 828, 40, -29540, -41020, 4270
152781, 588, 838, 36, -19810, -49490, 4060
152801, 585, 840, 39, -19180, -46480, 4130
152821, 582, 831, 38, -18550, -43190, 4060
152841, 583, 824, 32, -15190, -41790, 2730
152861, 577, 817, 35, -19320, -30590, 70
152881, 566, 808, 46, -24780, -17570, -840
152901, 574, 817, 41, -14980, -21980, -2100
152921, 585, 827, 32, 770, -33600, -2170
152941, 586, 825, 31, 2870, -28700, 2660
152961, 578, 818, 37, -4270, -11410, 4970
152981, 572, 813, 39, -5250, -910, -70
153001, 573, 813, 37, 1050, 420, -5250
153021, 563, 798, 41, 6090, 2310, -1610
153041, 559, 791, 39, 10990, 3990, 3780
153061, 567, 798, 36, 18270, 2870, 4270
153081, 574, 806, 32, 19110, 8680, 5600
153101, 578, 814, 41, 12950, 21910, 5250
153121, 583, 830, 44, 11270, 30170, -2590
153141, 595, 857, 40, 19880, 26600, -13440
153161, 603, 869, 37, 28770, 21840, -14630
153181, 594, 852, 41, 29610, 24920, -1470
153201, 587, 833, 39, 26670, 31500, 12040
153221, 584, 829, 39, 25340, 36050, 11270
153241, 585, 839, 41, 24780, 39480, -350
153261, 583, 841, 46, 24570, 41160, -9030
153281, 583, 837, 44, 27230, 37170, -8750
153301, 580, 830, 37, 32760, 28490, -4620
153321, 573, 818, 38, 32060, 27230, 1470
153341, 560, 800, 47, 22820, 35000, 8330
153361, 556, 795, 47, 15540, 38850, 11340
153381, 565, 800, 45, 16590, 31990, 7490
153401, 579, 826, 44, 20230, 21910, -2800
153421, 584, 846, 44, 20090, 16380, -11340
153441, 588, 849, 44, 15960, 15190, -7980
153461, 585, 839, 43, 10640, 14350, 4480
153481, 579, 825, 44, 4340, 14700, 15190
153501, 574, 819, 46, -140, 14000, 14700
153521, 572, 820, 48, -630, 8960, 6020
153541, 574, 822, 45, 770, 700, -210
153561, 577, 822, 39, 420, -5880, -980
153581, 575, 822, 43, -3710, -7000, -420
153601, 573, 821, 46, -10990, -3500, 1960
153621, 573, 820, 46, -15610, -3150, 6020
153641, 574, 816, 44, -14770, -9380, 8820
153661, 578, 821, 40, -12040, -16870, 5810
153681, 584, 834, 40, -12180, -19460, -2520
153701, 592, 853, 41, -13930, -19250, -10570
153721, 600, 864, 38, -14490, -19740, -11550
153741, 596, 857, 42, -17500, -17080, -1470
153761, 588, 841, 44, -20650, -13790, 10640
153781, 583, 826, 40, -15890, -18270, 11340
153801, 564, 799, 37, -8610, -24710, 4480
153821, 542, 766, 36, -9450, -22120, 1400
153841, 527, 741, 40, -15820, -14210, 4550
153861, 526, 737, 41, -18270, -10990, 7070
153881, 534, 752, 42, -15610, -13370, 4970
153901, 554, 781, 44, -12600, -15960, 630
153921, 584, 826, 38, -8120, -19740, -6510
153941, 605, 864, 31, -420, -25760, -17220
153961, 600, 863, 33, 1750, -23800, -21490
153981, 576, 829, 40, -6440, -9520, -10360
154001, 563, 798, 41, -11830, 1190, 7560
154021, 564, 791, 37, -4340, -2590, 15330
154041, 572, 803, 34, 7140, -10360, 8190
154061, 576, 816, 38, 11410, -9380, -4200
154081, 591, 840, 37, 10220, -2450, -11900
154101, 610, 875, 34, 11130, 1540, -15960
154121, 618, 898, 38, 13090, 5110, -15120
154141, 621, 899, 43, 13090, 11900, -5600
154161, 612, 880, 41, 16030, 14700, 8960
154181, 607, 859, 31, 24990, 9520, 17780
154201, 597, 850, 33, 32060, 6930, 13090
154221, 589, 847, 40, 29050, 16660, 1680
154241, 580, 839, 42, 23450, 28280, -4270
154261, 561, 801, 40, 24080, 30240, 4620
154281, 538, 757, 40, 27160, 27020, 23380
154301, 522, 724, 43, 27510, 26110, 35350
154321, 523, 727, 42, 26880, 26250, 31080
154341, 539, 758, 37, 28420, 23380, 13370
154361, 552, 785, 40, 27300, 22680, -4480
154381, 560, 805, 49, 19040, 29260, -9100
154401, 572, 821, 47, 11690, 33880, -2310
154421, 587, 837, 41, 13860, 27300, 6230
154441, 599, 852, 38, 20230, 16310, 11270
154461, 598, 852, 41, 19810, 14070, 10850
154481, 598, 855, 43, 8050, 22820, -3150
154501, 594, 859, 41, 8260, 19880, -8050
154521, 589, 853, 44, 6090, 19040, -1330
154541, 578, 833, 48, 4760, 16100, 10360
154561, 577, 822, 43, 8190, 7420, 14980
154581, 583, 824, 37, 9100, 2030, 8610
154601, 588, 836, 42, 2520, 5880, -4970
154621, 593, 856, 45, -3220, 8960, -16380
154641, 599, 867, 47, -3920, 5390, -14700
154661, 601, 869, 45, -1680, -2380, -3640
154681, 592, 849, 42, -70, -8750, 6930
154701, 578, 822, 41, -1750, -10290, 11480
154721, 559, 793, 39, -6580, -8820, 8470
154741, 547, 772, 44, -12460, -6510, 2240
154761, 544, 770, 45, -15680, -7490, -4970
154781, 551, 786, 46, -14770, -13020, -10640
154801, 566, 808, 45, -11620, -21000, -10570
154821, 577, 821, 39, -10570, -26320, -3850
154841, 584, 830, 38, -13370, -26110, 2870
154861, 591, 839, 37, -17500, -22330, 2170
154881, 587, 840, 43, -20650, -17990, -2940
154901, 582, 834, 45, -20510, -17640, -5110
154921, 579, 826, 41, -14910, -23730, -2590
154941, 575, 815, 36, -9240, -28910, 2870
154961, 569, 804, 37, -10500, -25130, 8260
154981, 562, 791, 40, -15120, -17360, 10150
155001, 565, 797, 38, -15050, -14700, 5600
155021, 573, 813, 39, -11060, -16170, -3430
155041, 581, 831, 40, -8050, -15820, -10220
155061, 589, 848, 36, -4340, -15540, -11060
155081, 597, 851, 35, -700, -15120, -3850
155101, 595, 847, 35, -770, -10290, 6580
155121, 588, 832, 40, -3010, -2100, 11340
155141, 579, 821, 39, -1820, 2520, 7140
155161, 576, 821, 38, 4690, 840, -980
155181, 575, 816, 37, 9520, 210, -2100
155201, 578, 819, 39, 10220, 3920, 2730
155221, 577, 821, 37, 10850, 7910, 5110
155241, 576, 819, 37, 11900, 11410, 5880
155261, 571, 810, 40, 11830, 15190, 8260
155281, 570, 807, 40, 13160, 16660, 8820
155301, 575, 816, 38, 18340, 13720, 3150
155321, 579, 824, 38, 21350, 13020, -2940
155341, 580, 830, 41, 19950, 16660, -2940
155361, 580, 827, 42, 17710, 20300, 3640
155381, 578, 824, 40, 17430, 21070, 9660
155401, 576, 822, 41, 19600, 18970, 7420
155421, 571, 815, 44, 20650, 17920, 3360
155441, 572, 816, 40, 21350, 15960, 350
155461, 571, 812, 37, 21910, 13440, -700
155481, 566, 807, 42, 18410, 15470, 2590
155501, 563, 803, 47, 12390, 19810, 6860
155521, 570, 813, 45, 11200, 17710, 7560
155541, 580, 826, 41, 16170, 8400, 3220
155561, 588, 839, 40, 16870, 3850, -1540
155581, 594, 855, 41, 12460, 5460, -4900
155601, 595, 857, 43, 9170, 6300, -5460
155621, 590, 850, 44, 6300, 6300, -700
155641, 580, 828, 44, 3150, 6090, 6160
155661, 579, 824, 41, 3290, 2170, 9870
155681, 575, 818, 37, 6650, -5110, 6020
155701, 571, 814, 43, 4620, -6300, 980
155721, 566, 811, 44, -2800, -1470, -140
155741, 571, 816, 44, -6930, -560, -630
155761, 572, 819, 41, -5880, -5390, -1050
155781, 570, 813, 44, -6160, -8750, 2730
155801, 573, 815, 41, -7560, -10710, 6160
155821, 576, 819, 38, -6860, -14210, 3220
155841, 576, 821, 39, -9030, -13160, -980
155861, 574, 824, 46, -15400, -7210, -2450
155881, 584, 833, 42, -17430, -6160, -1330
155901, 589, 841, 38, -11130, -14000, -1260
155921, 583, 832, 41, -7210, -18550, 0
155941, 579, 820, 39, -10150, -14770, 3920
155961, 566, 801, 38, -11410, -12250, 4340
155981, 558, 790, 40, -11970, -10150, 3500
156001, 552, 783, 45, -13930, -6860, 2940
156021, 559, 792, 42, -14350, -5670, 3430
156041, 581, 826, 37, -9240, -10710, 770
156061, 600, 855, 34, -2590, -16590, -6580
156081, 606, 869, 40, -3430, -12740, -8540
156101, 604, 866, 41, -7560, -4480, -5250
156121, 596, 848, 40, -7000, -1540, -490
156141, 580, 826, 38, -2450, -3220, 4270
156161, 563, 794, 41, 1330, -3780, 6720
156181, 553, 777, 39, 1470, -560, 9380
156201, 551, 777, 37, 2030, 1260, 9380
156221, 561, 793, 40, 3220, 2030, 5040
156241, 576, 822, 42, 3010, 4480, -1890
156261, 587, 841, 43, 4410, 5320, -8540
156281, 596, 851, 38, 8470, 2590, -8890
156301, 591, 842, 37, 12460, -420, 4830
156321, 575, 819, 41, 7000, 10850, 9660
156341, 566, 805, 45, 5670, 14420, 9590
156361, 563, 799, 42, 10360, 10150, 5180
156381, 565, 805, 38, 15610, 4830, -350
156401, 569, 807, 42, 15470, 5460, -1610
156421, 577, 823, 40, 13930, 7210, -700
156441, 589, 838, 39, 14700, 6510, -560
156461, 589, 840, 39, 12810, 8820, 2100
156481, 580, 830, 47, 9450, 12250, 5950
156501, 578, 824, 43, 12460, 8050, 5320
156521, 578, 823, 39, 18620, 420, 980
156541, 567, 811, 41, 16310, 1960, 1260
156561, 564, 798, 42, 8750, 8820, 6510
156581, 567, 802, 45, 7140, 8260, 8050
156601, 580, 827, 40, 10920, 1750, 1540
156621, 591, 847, 40, 11690, -630, -5670
156641, 593, 854, 44, 7700, 2240, -3920
156661, 600, 861, 41, 7770, 140, 770
156681, 599, 854, 36, 9170, -2800, 3710
156701, 586, 836, 42, 4480, 2030, 6720
156721, 569, 813, 48, -840, 7000, 10220
156741, 563, 801, 44, 840, 2660, 12810
156761, 573, 806, 38, 5670, -5250, 9450
156781, 569, 811, 42, 3570, -4410, 2100
156801, 573, 820, 43, -1680, 560, -3080
156821, 576, 821, 41, -2660, -280, -1330
156841, 574, 817, 39, -2030, -3430, 5250
156861, 570, 807, 44, -4200, -2520, 9380
156881, 573, 814, 45, -6370, -700, 7630
156901, 589, 841, 40, -2100, -6230, -1400
156921, 600, 857, 35, 1330, -10360, -8540
156941, 593, 854, 42, -4200, -3780, -6790
156961, 588, 843, 46, -9730, 2940, -630
156981, 584, 836, 39, -5670, -1400, 5040
157001, 579, 820, 37, -420, -7070, 8610
157021, 566, 799, 41, -2940, -3710, 9660
157041, 558, 788, 42, -6230, 700, 6160
157061, 561, 794, 40, -3850, -1820, -1400
157081, 565, 804, 39, -2170, -3920, -6090
157101, 566, 804, 44, -5530, -490, -2380
157121, 572, 816, 43, -6370, 280, 2170
157141, 584, 828, 37, -1400, -5460, 1820
157161, 589, 837, 38, 420, -6860, 280
157181, 585, 838, 41, -2660, -2240, -2730
157201, 581, 831, 41, -3920, 700, -5110
157221, 579, 827, 39, -1400, -980, -3150
157241, 571, 811, 41, -630, -1330, 2730
157261, 568, 808, 41, -1400, 280, 7210
157281, 575, 813, 38, 1120, -1470, 4270
157301, 576, 819, 40, 3640, -3360, -2170
157321, 574, 819, 42, 1890, -420, -5320
157341, 571, 814, 42, -770, 3290, -3570
157361, 574, 820, 41, 770, 1890, -1260
157381, 581, 827, 40, 4970, -2380, -280
157401, 585, 832, 41, 5600, -2590, 1820
157421, 588, 839, 40, 4270, -350, 1890
157441, 589, 839, 39, 5040, -350, -1680
157461, 580, 828, 40, 5040, 770, -3150
157481, 566, 809, 43, 2870, 3780, 490
157501, 564, 803, 41, 3360, 3080, 6300
157521, 570, 805, 38, 7420, -2030, 8960
157541, 576, 819, 40, 8540, -3500, 6510
157561, 583, 833, 42, 5950, -420, 140
157581, 596, 856, 41, 4340, 1750, -5810
157601, 602, 866, 40, 4690, 1540, -7770
157621, 595, 856, 42, 4480, 2100, -3360
157641, 584, 838, 40, 4130, 2800, 5880
157661, 578, 821, 39, 5250, 1540, 14210
157681, 570, 808, 37, 6650, -140, 15680
157701, 556, 790, 42, 5110, 2030, 10920
157721, 549, 780, 46, 560, 7000, 5950
157741, 552, 786, 42, -140, 6300, 3150
157761, 563, 799, 41, 3850, -140, 3150
157781, 577, 820, 41, 5460, -3570, 4550
157801, 587, 837, 42, 3010, -1750, 4060
157821, 598, 854, 43, 1890, -910, 1050
157841, 603, 865, 40, 3780, -3080, -3990
157861, 596, 860, 43, 3780, -2520, -6720
157881, 586, 844, 45, 1190, 1400, -2170
157901, 577, 825, 40, 2100, 770, 6370
157921, 572, 805, 37, 5600, -3500, 13440
157941, 560, 791, 41, 6370, -4480, 14000
157961, 557, 793, 43, 3010, -350, 7980
157981, 567, 810, 41, 770, 2030, -840
158001, 578, 826, 40, 2730, -980, -6930
158021, 584, 834, 42, 3990, -3430, -5530
158041, 584, 834, 41, 3010, -3010, 0
158061, 579, 823, 38, 3640, -4130, 4270
158081, 571, 805, 39, 4410, -5040, 6720
158101, 558, 792, 42, 1050, -1330, 7700
158121, 557, 791, 43, -2170, 2310, 5040
158141, 565, 802, 41, 2100, -3570, -1540
158161, 580, 828, 40, 3430, -5810, -1610
158181, 593, 846, 41, 2800, -4970, -1400
158201, 602, 863, 40, 2100, -3290, -3290
158221, 601, 864, 41, 840, -770, -2940
158241, 591, 846, 41, 140, 1120, 1050
158261, 578, 826, 42, 1750, 280, 4900
158281, 564, 802, 43, 3080, -770, 8540
158301, 557, 787, 38, 3570, -1120, 9240
158321, 553, 779, 40, 2030, 350, 7770
158341, 561, 793, 42, 350, 1750, 3150
158361, 581, 829, 39, 2030, -280, -6160
158381, 602, 867, 39, 4130, -2030, -12740
158401, 606, 875, 41, 3710, -770, -9100
158421, 595, 854, 42, 2940, 490, 2450
158441, 576, 819, 39, 4410, -630, 12110
158461, 551, 780, 41, 3430, 1330, 16310
158481, 530, 746, 44, -1050, 6300, 16870
158501, 522, 732, 46, -1890, 5740, 13300
158521, 531, 743, 44, 3080, -2240, 4410
158541, 555, 786, 39, 7910, -9380, -7070
158561, 584, 841, 44, 8750, -11130, -12950
158581, 603, 874, 42, 9100, -11480, -8610
158601, 595, 855, 42, 10430, -13160, 4620
158621, 560, 797, 42, 11340, -14280, 17710
158641, 521, 731, 42, 13790, -16940, 22680
158661, 495, 689, 42, 15680, -20020, 24780
158681, 505, 696, 46, 15470, -22960, 25620
158701, 560, 778, 41, 17710, -28700, 15750
158721, 637, 916, 34, 24500, -36400, -9870
158741, 691, 1026, 33, 28000, -36610, -33950
158761, 697, 1047, 41, 24220, -28350, -29960
158781, 715, 1060, 36, 25550, -26670, 0
158801, 761, 1117, 16, 39200, -35280, 25550
158821, 754, 1117, 9, 41790, -26320, 31360
158841, 628, 928, 44, 15750, 12810, 37100
158861, 523, 748, 58, -4620, 38710, 54390
158881, 467, 638, 46, 9870, 19390, 57680
158901, 444, 595, 33, 31570, -11060, 42910
158921, 438, 584, 34, 30170, -15540, 32130
158941, 460, 616, 40, 8820, 770, 30870
158961, 520, 704, 33, -11690, 12600, 19390
158981, 595, 823, 25, -23660, 15680, -11270
159001, 639, 925, 42, -37380, 27930, -47460
159021, 663, 1008, 62, -46690, 39690, -75180
159041, 698, 1063, 31, -24080, 13650, -77980
159061, 692, 998, -11, 7840, -24430, -34860
159081, 600, 837, 6, -16380, 2380, 30450
159101, 505, 695, 56, -82950, 76370, 58590
159121, 476, 656, 65, -108640, 102060, 25760
159141, 496, 690, 42, -75180, 57120, -37800
159161, 534, 748, 29, -41860, 8750, -87640
159181, 582, 828, 28, -44800, 1960, -100310
159201, 651, 941, 24, -65030, 20020, -88830
159221, 715, 1050, 14, -79170, 36890, -77070
159241, 679, 1016, 45, -93940, 58380, -66430
159261, 612, 906, 59, -106750, 77420, -49140
159281, 600, 858, 33, -79590, 49210, -45290
159301, 643, 904, 0, -35770, 2660, -58940
159321, 667, 965, 15, -34720, 6930, -73010
159341, 648, 969, 53, -76580, 62790, -70560
159361, 615, 920, 65, -99960, 97300, -54670
159381, 592, 859, 47, -71120, 68530, -40040
159401, 593, 846, 31, -25900, 18900, -34440
159421, 618, 884, 23, -3080, -4060, -38570
159441, 634, 924, 21, -6090, 4130, -44240
159461, 605, 891, 46, -27020, 32130, -35490
159481, 576, 846, 77, -50260, 60340, -3710
159501, 608, 888, 64, -37380, 46410, 16730
159521, 672, 994, 18, 24080, -19600, -2240
159541, 644, 955, 15, 74270, -69230, -19600
159561, 552, 810, 47, 58520, -45640, 17290
159581, 489, 694, 67, 15120, 6440, 84350
159601, 473, 664, 66, 9170, 14560, 115290
159621, 484, 687, 60, 41790, -19390, 99890
159641, 502, 719, 60, 77490, -57120, 79380
159661, 549, 775, 48, 99120, -81200, 80640
159681, 625, 884, 27, 115220, -99820, 88410
159701, 694, 1008, 23, 121800, -101290, 84560
159721, 702, 1077, 63, 104860, -69020, 74970
159741, 727, 1108, 77, 82670, -30380, 81200
159761, 802, 1190, 15, 108570, -49000, 100240
159781, 826, 1230, -14, 176050, -110110, 99260
159801, 744, 1136, 30, 193480, -108850, 84000
159821, 678, 1031, 62, 140700, -30450, 98350
159841, 693, 1016, 45, 115360, 10360, 130620
159861, 752, 1096, 20, 151270, -19880, 133700
159881, 774, 1161, 18, 189350, -50330, 95760
159901, 754, 1139, 17, 191450, -40390, 55440
159921, 678, 1019, 24, 173460, -12460, 53760
159941, 590, 877, 47, 146370, 22120, 88340
159961, 524, 768, 69, 121800, 48160, 138880
159981, 515, 721, 52, 150360, 5880, 128730
160001, 531, 714, 23, 168280, -27720, 98980
160021, 528, 705, 14, 141330, -10570, 59080
160041, 500, 692, 41, 85960, 39830, 20790
160061, 475, 687, 66, 48020, 66640, -3290
160081, 475, 692, 65, 44660, 45290, -280
160101, 481, 685, 56, 49350, 8260, 26530
160121, 495, 674, 46, 41020, -16240, 48230
160141, 521, 687, 35, 23450, -26670, 27090
160161, 560, 743, 14, 0, -23590, -40250
160181, 563, 786, 28, -45780, 11200, -111440
160201, 534, 807, 73, -99050, 52710, -140700
160221, 534, 812, 79, -108920, 35210, -116480
160241, 571, 812, 30, -75880, -36470, -66710
160261, 623, 835, -8, -63910, -78400, -45500
160281, 651, 887, -1, -112000, -40950, -77070
160301, 694, 997, 26, -176260, 25060, -135240
160321, 765, 1168, 42, -201040, 51240, -184380
160341, 868, 1384, 34, -181440, 27930, -205380
160361, 951, 1526, -4, -135730, -20300, -189070
160381, 975, 1493, -70, -107800, -44730, -131810
160401, 863, 1265, -50, -155820, 11690, -66640
160421, 765, 1120, 19, -234990, 102410, -55650
160441, 800, 1234, 35, -234360, 108570, -122430
160461, 920, 1451, -11, -162960, 36540, -196140
160481, 1004, 1569, -47, -122430, -1820, -192430
160501, 966, 1497, -39, -146090, 33950, -129990
160521, 849, 1302, -1, -188300, 93240, -76440
160541, 732, 1105, 33, -202300, 118370, -61320
160561, 676, 1007, 28, -170240, 86170, -85190
160581, 674, 996, 0, -122290, 33460, -122500
160601, 659, 975, -2, -109760, 20860, -132860
160621, 609, 908, 19, -138320, 54600, -103600
160641, 550, 808, 47, -162610, 80500, -56210
160661, 504, 715, 44, -151130, 61460, -25480
160681, 480, 662, 36, -117530, 14980, -28700
160701, 454, 623, 32, -96670, -15820, -48230
160721, 427, 587, 35, -95900, -21980, -60130
160741, 397, 548, 43, -104020, -17080, -53690
160761, 369, 507, 51, -111440, -13860, -29680
160781, 338, 461, 59, -112280, -21000, 2100
160801, 320, 426, 65, -101500, -41650, 29400
160821, 325, 416, 64, -74200, -79240, 38920
160841, 345, 438, 56, -38150, -121940, 26740
160861, 394, 515, 51, -3290, -158480, -5880
160881, 465, 636, 45, 20790, -179340, -43190
160901, 583, 852, 48, 36190, -188020, -68390
160921, 731, 1118, 48, 51730, -192220, -73990
160941, 934, 1476, 16, 79940, -205450, -57680
160961, 1067, 1684, -46, 133070, -238210, -42210
160981, 938, 1430, -33, 170100, -244790, -25200
161001, 779, 1141, 17, 141190, -171220, 25900
161021, 723, 1062, 47, 117950, -97230, 56560
161041, 810, 1232, 26, 160370, -95970, 21280
161061, 984, 1516, -21, 241080, -140210, -22610
161081, 1184, 1868, -89, 307440, -166740, -44940
161101, 1238, 1997, -92, 320880, -131040, -69370
161121, 999, 1661, 13, 276150, -24430, -44030
161141, 862, 1354, 24, 252350, 65870, 60480
161161, 867, 1299, -42, 328860, 41370, 131040
161181, 898, 1381, -57, 403690, 4690, 105420
161201, 874, 1425, -18, 383250, 60620, 48930
161221, 823, 1374, 5, 322140, 152530, 36890
161241, 775, 1274, 4, 305410, 188230, 85120
161261, 719, 1156, 0, 325500, 179410, 158550
161281, 646, 1008, 0, 335440, 176820, 213710
161301, 569, 861, 7, 317800, 194880, 231630
161321, 502, 757, 23, 282450, 221340, 207900
161341, 464, 708, 37, 246750, 240730, 161350
161361, 437, 675, 46, 225120, 239890, 125790
161381, 411, 625, 53, 210490, 225330, 124810
161401, 381, 553, 56, 188720, 208810, 148330
161421, 351, 476, 63, 159460, 192220, 164220
161441, 317, 416, 77, 127540, 175420, 153020
161461, 295, 381, 86, 101290, 151060, 112770
161481, 286, 365, 84, 85820, 111510, 57680
161501, 278, 356, 84, 74270, 62230, 3990
161521, 263, 343, 90, 54390, 17920, -37030
161541, 271, 348, 87, 26110, -19250, -63420
161561, 294, 376, 82, -840, -61040, -87010
161581, 353, 455, 71, -26880, -101710, -117250
161601, 458, 618, 51, -50540, -140210, -162470
161621, 638, 968, 50, -72100, -172200, -233310
161641, 947, 1696, 32, -97440, -186130, -338730
161661, 1298, 1997, -82, -109830, -204050, -452060
161681, 1083, 1811, -88, -89670, -249970, -449680
161701, 775, 1090, -35, -101570, -243810, -197610
161721, 636, 813, 0, -181510, -155190, 41650
161741, 673, 933, -4, -236250, -103810, -2310
161761, 813, 1309, 24, -254590, -97930, -202720
161781, 1173, 1997, -23, -277900, -85330, -379400
161801, 1446, 1997, -163, -191660, -164290, -354200
161821, 1138, 1829, -141, -190610, -126910, -73570
161841, 861, 1170, -71, -277830, -12600, 90510
161861, 750, 1046, -17, -334110, 49490, -57540
161881, 727, 1189, 35, -332080, 53270, -267960
161901, 823, 1398, 14, -266980, -4620, -297080
161921, 965, 1543, -70, -185850, -85470, -161140
161941, 1006, 1536, -108, -183330, -72940, -14210
161961, 875, 1327, -31, -257320, 29190, 36400
161981, 734, 1103, 5, -277760, 64750, -13580
162001, 634, 934, -2, -227570, 20370, -80500
162021, 538, 794, 9, -199150, -2100, -91350
162041, 446, 663, 21, -193620, -210, -39900
162061, 26, 807, 389, -182630, -8260, 46690
162081, -253, 1022, -522, -403760, -343350, 113750
162101, -218, 820, -564, -1017380, -1264830, 167790
162121, 784, -139, -1964, -998200, -1307530, 217420
162141, 353, 324, -38, -742070, -772380, 124110
162161, 293, 335, 43, -345940, -98840, -68110
162181, 268, 349, 73, -278880, -59290, -175350
162201, 311, 415, 41, -175420, -135660, -224700
162221, 434, 546, -49, -65170, -215810, -251020
162241, 532, 689, -45, -6090, -210140, -257600
162261, 574, 833, 54, -18970, -104020, -231700
162281, 883, 1245, -83, 18970, -81340, -215950
162301, 1163, 1647, -176, 52710, -73850, -227640
162321, 1125, 1818, -68, -55510, 111440, -274960
162341, 876, 1546, 72, -82740, 260540, -313460
162361, 905, 1299, -142, 138250, 135170, -228900
162381, 818, 1071, -163, 247240, 89670, -123760
162401, 678, 991, -31, 134050, 294980, -157360
162421, 769, 1437, 66, 84420, 443520, -300580
162441, 1231, 1997, -190, 288890, 307580, -431410
162461, 1391, 1997, -305, 489230, 171990, -408660
162481, 924, 1638, -100, 403970, 351120, -224560
162501, 643, 1157, 7, 307230, 536760, -85120
162521, 640, 1201, -47, 415100, 483350, -104440
162541, 777, 1414, -128, 588630, 338380, -163590
162561, 879, 1528, -162, 662830, 295540, -99890
162581, 776, 1383, -108, 598920, 393330, 21560
162601, 666, 1283, -60, 491470, 523110, 35070
162621, 612, 1255, -39, 478170, 539000, -16730
162641, 573, 1175, -37, 511350, 494270, 47880
162661, 474, 959, -22, 498750, 473550, 227640
162681, 376, 682, 12, 431690, 490350, 367010
162701, 315, 500, 41, 364770, 492240, 351540
162721, 297, 485, 60, 335650, 450730, 207060
162741, 316, 531, 60, 336140, 376670, 54460
162761, 318, 540, 74, 325010, 304080, -6720
162781, 299, 484, 87, 273840, 260050, 30660
162801, 274, 396, 90, 199780, 224910, 106540
162821, 241, 308, 116, 127190, 186270, 148610
162841, 231, 278, 138, 77070, 133000, 121940
162861, 262, 340, 130, 64680, 41370, 30520
162881, 314, 466, 111, 73990, -79170, -94290
162901, 376, 596, 96, 66920, -188440, -200480
162921, 458, 740, 82, 30170, -268940, -251090
162941, 597, 965, 50, -18410, -328580, -257180
162961, 834, 1394, 12, -58450, -376880, -249550
162981, 994, 1697, -21, -89460, -408800, -246400
163001, 917, 1498, -36, -131250, -418950, -218680
163021, 770, 1208, -26, -188650, -406490, -166530
163041, 678, 1144, 9, -250180, -376040, -177590
163061, 764, 1295, -33, -294140, -362950, -249200
163081, 910, 1475, -69, -303940, -387520, -268870
163101, 1096, 1799, -82, -339640, -375410, -232330
163121, 1154, 1997, -53, -402220, -323400, -244300
163141, 1146, 1997, -114, -422450, -295750, -271670
163161, 1028, 1677, -144, -376740, -325080, -182420
163181, 879, 1381, -95, -386540, -290220, -17570
163201, 779, 1260, -40, -446950, -199080, 31360
163221, 759, 1227, -48, -463610, -156450, -7560
163241, 772, 1220, -62, -416570, -183470, -25270
163261, 801, 1276, -58, -373310, -202370, -3430
163281, 778, 1255, -47, -346360, -192220, 24290
163301, 722, 1117, -56, -311920, -180110, 74200
163321, 626, 898, -58, -274680, -174300, 140070
163341, 527, 716, -31, -265020, -142310, 175280
163361, 441, 605, 12, -274610, -90510, 152460
163381, 393, 547, 32, -265580, -60760, 108010
163401, 372, 505, 26, -218190, -79240, 84630
163421, 367, 448, 1, -154910, -121520, 88690
163441, 364, 400, -11, -103250, -150010, 100590
163461, 352, 374, -2, -76790, -140560, 92610
163481, 348, 383, 15, -69790, -97650, 53760
163501, 352, 411, 32, -59640, -54460, -1820
163521, 376, 447, 33, -35350, -32620, -48370
163541, 423, 510, 27, 1750, -34440, -79100
163561, 504, 650, 14, 46550, -48020, -111580
163581, 627, 900, 1, 95830, -59850, -166250
163601, 780, 1191, -13, 140280, -60620, -231770
163621, 909, 1383, -22, 156100, 3080, -197190
163641, 934, 1400, -18, 152180, 56630, -129430
163661, 821, 1256, 10, 175560, 89460, -127540
163681, 738, 1118, 7, 227080, 85610, -141610
163701, 710, 1033, -14, 283990, 67060, -122430
163721, 739, 1087, -23, 308070, 80920, -124810
163741, 841, 1328, -11, 310730, 118580, -163660
163761, 1013, 1698, -19, 334810, 135730, -182560
163781, 1170, 1947, -81, 390250, 122850, -139650
163801, 1081, 1777, -99, 425390, 135520, -70490
163821, 869, 1435, -38, 400050, 213500, -3360
163841, 729, 1213, 8, 380450, 271040, 48090
163861, 714, 1166, 0, 410480, 254380, 70280
163881, 771, 1239, -30, 449120, 217630, 74270
163901, 804, 1309, -38, 443310, 220920, 75740
163921, 762, 1264, -19, 389900, 267540, 94080
163941, 674, 1125, 10, 331940, 309750, 127190
163961, 609, 1010, 25, 299950, 312340, 151620
163981, 549, 901, 38, 284900, 286930, 174090
164001, 502, 791, 43, 265090, 257880, 203490
164021, 456, 671, 47, 233520, 233240, 216300
164041, 411, 570, 53, 192150, 215110, 191240
164061, 368, 500, 68, 148260, 198800, 136080
164081, 333, 465, 88, 109060, 173460, 78260
164101, 312, 445, 99, 77770, 129290, 44870
164121, 295, 416, 99, 49700, 70280, 42980
164141, 287, 380, 90, 18060, 9660, 55790
164161, 282, 348, 80, -18970, -42980, 55650
164181, 282, 335, 77, -59290, -83300, 23170
164201, 309, 382, 75, -97160, -116970, -46130
164221, 358, 486, 71, -129220, -151900, -140000
164241, 444, 655, 59, -157990, -187670, -230860
164261, 578, 912, 50, -186200, -220920, -300720
164281, 761, 1302, 46, -217980, -244230, -339500
164301, 991, 1761, -1, -230370, -279090, -325640
164321, 1083, 1786, -110, -210420, -333620, -222320
164341, 888, 1350, -97, -234780, -323890, -61810
164361, 699, 1021, -31, -338940, -217490, 15540
164381, 628, 945, -8, -406560, -147490, -39270
164401, 668, 1049, -21, -402640, -157710, -127680
164421, 790, 1257, -36, -387240, -181580, -156940
164441, 1029, 1675, -70, -376810, -192570, -135240
164461, 1228, 1997, -118, -353290, -197330, -112630
164481, 1121, 1877, -126, -331240, -178710, -58310
164501, 902, 1395, -104, -338310, -122080, 67760
164521, 768, 1135, -68, -348670, -63070, 142520
164541, 711, 1075, -28, -347270, -24500, 104020
164561, 737, 1111, -27, -317520, -20300, 63280
164581, 811, 1200, -53, -260680, -45220, 63700
164601, 847, 1276, -55, -216930, -53410, 57890
164621, 803, 1239, -34, -201810, -21700, 52990
164641, 715, 1061, -29, -188790, 13510, 91910
164661, 618, 862, -25, -166390, 29610, 141820
164681, 517, 693, -6, -148120, 45080, 144340
164701, 422, 561, 13, -138670, 67760, 114380
164721, 362, 467, 29, -124250, 79800, 95690
164741, 344, 411, 30, -99400, 73010, 96670
164761, 342, 388, 20, -68250, 56000, 91140
164781, 324, 372, 35, -37450, 46340, 61880
164801, 315, 369, 45, -8260, 46130, 20230
164821, 333, 391, 38, 29890, 31640, -17710
164841, 371, 444, 32, 71610, 5670, -47110
164861, 444, 557, 21, 101570, -8120, -78260
164881, 526, 719, 23, 121870, -7280, -115010
164901, 624, 908, 38, 137410, 6090, -138180
164921, 761, 1154, 38, 158060, 14350, -130410
164941, 935, 1446, -16, 196910, -3780, -109620
164961, 1012, 1562, -67, 252000, -37450, -102690
164981, 849, 1307, -1, 262920, -14490, -80850
165001, 711, 1101, 43, 218540, 73850, -21980
165021, 703, 1057, 23, 231210, 95550, 9170
165041, 764, 1152, 0, 300160, 48720, 8610
165061, 847, 1299, 8, 343700, 25340, 9800
165081, 999, 1566, -34, 351610, 40320, 17850
165101, 1042, 1672, -49, 365960, 46480, 3780
165121, 928, 1548, 26, 345660, 91000, 17360
165141, 853, 1390, 31, 296380, 165270, 87500
165161, 825, 1281, -21, 323610, 150710, 156590
165181, 758, 1167, -4, 368900, 110950, 193970
165201, 729, 1146, 31, 330540, 154910, 198730
165221, 775, 1222, 4, 283570, 198310, 167440
165241, 763, 1226, 7, 284480, 182490, 136850
165261, 700, 1143, 39, 260190, 190470, 149590
165281, 666, 1046, 35, 213920, 215600, 185990
165301, 628, 932, 11, 207480, 192290, 217980
165321, 557, 811, 30, 202440, 165130, 226380
165341, 485, 710, 64, 156380, 178220, 196000
165361, 438, 644, 76, 106610, 189000, 148120
165381, 408, 581, 69, 91000, 155120, 119630
165401, 379, 519, 66, 86520, 102200, 121660
165421, 354, 461, 70, 63840, 65030, 132790
165441, 332, 414, 79, 26740, 42700, 130410
165461, 316, 385, 85, -31360, -15120, 51590
165481, 314, 393, 75, -45710, -60690, -15960
165501, 331, 430, 67, -64050, -103600, -83300
165521, 356, 485, 65, -93310, -134470, -133350
165541, 394, 553, 64, -126980, -159670, -160580
165561, 460, 658, 52, -155050, -187810, -174370
165581, 572, 831, 33, -176610, -214550, -190820
165601, 715, 1084, 17, -199570, -226520, -221200
165621, 869, 1402, 6, -222460, -227920, -261030
165641, 947, 1581, -18, -237790, -231700, -263130
165661, 884, 1427, -35, -250600, -230930, -178220
165681, 777, 1174, -44, -275800, -208110, -62300
165701, 726, 1041, -40, -310660, -171500, -23240
165721, 779, 1130, -37, -340480, -136710, -74830
165741, 897, 1396, -24, -361340, -105490, -162750
165761, 1038, 1746, -27, -354900, -94640, -216930
165781, 1122, 1890, -73, -308910, -113750, -165410
165801, 1052, 1682, -114, -261660, -125580, -21910
165821, 921, 1366, -99, -282380, -65240, 95760
165841, 832, 1210, -48, -332220, 20160, 80640
165861, 802, 1231, -10, -336420, 54880, -17220
165881, 814, 1283, -17, -277130, 26460, -65520
165901, 829, 1274, -50, -204750, -15260, -19460
165921, 792, 1169, -68, -176610, -9310, 61110
165941, 717, 1034, -42, -195650, 47390, 107380
165961, 632, 895, 0, -219170, 102970, 98070
165981, 567, 799, 24, -204400, 110040, 52640
166001, 528, 742, 19, -152670, 74060, 9100
166021, 505, 703, 6, -102410, 39480, 770
166041, 477, 648, 1, -79660, 35350, 31920
166061, 428, 565, 16, -80710, 56770, 76720
166081, 381, 478, 34, -85750, 80010, 99610
166101, 349, 418, 47, -71330, 79240, 83860
166121, 332, 393, 49, -34720, 52780, 39830
166141, 331, 400, 44, 9030, 18970, -10430
166161, 342, 427, 38, 46550, -7140, -47460
166181, 364, 466, 42, 73640, -21070, -59780
166201, 409, 525, 47, 96040, -31080, -51170
166221, 489, 644, 45, 120330, -45430, -42840
166241, 629, 889, 38, 149730, -63490, -55230
166261, 836, 1277, 13, 188790, -86800, -86520
166281, 1042, 1646, -34, 231560, -110670, -110180
166301, 1104, 1744, -71, 252350, -111230, -97930
166321, 899, 1393, -18, 228340, -52290, -36050
166341, 686, 1052, 62, 186970, 39270, 59220
166361, 620, 905, 64, 201390, 54880, 111230
166381, 691, 958, 4, 281260, -12740, 109410
166401, 854, 1253, -30, 349510, -66150, 54110
166421, 1077, 1740, -39, 350000, -46270, -26040
166441, 1231, 1997, -71, 319830, 10080, -57960
166461, 1037, 1740, -12, 295050, 68600, 21840
166481, 825, 1324, 22, 277200, 123760, 158760
166501, 737, 1111, -3, 311640, 117740, 229950
166521, 699, 1031, -17, 346920, 95690, 222670
166541, 669, 1015, 12, 322770, 127610, 177450
166561, 720, 1136, 18, 275800, 176540, 125860
166581, 790, 1260, -5, 263900, 180250, 96320
166601, 770, 1247, 0, 260680, 171850, 125090
166621, 663, 1040, 24, 228200, 194810, 183610
166641, 581, 882, 27, 194460, 211960, 210910
166661, 503, 740, 34, 183820, 196070, 201180
166681, 436, 623, 48, 163520, 183890, 185430
166701, 381, 533, 65, 129920, 179130, 168560
166721, 344, 467, 74, 101920, 161980, 149100
166741, 324, 420, 72, 85330, 126910, 126700
166761, 309, 388, 71, 71190, 85470, 99750
166781, 294, 367, 77, 48160, 52010, 66570
166801, 287, 355, 83, 17360, 25060, 28560
166821, 287, 362, 81, -11480, -7840, -11830
166841, 310, 393, 69, -32830, -51380, -53690
166861, 347, 453, 63, -51870, -95830, -98350
166881, 406, 552, 57, -76160, -129150, -147140
166901, 503, 726, 50, -103950, -153440, -198520
166921, 654, 1009, 43, -129290, -174370, -247590
166941, 872, 1426, 8, -145390, -196070, -288890
166961, 1035, 1744, -26, -149870, -221130, -309890
166981, 984, 1586, -49, -160860, -231840, -270550
167001, 821, 1214, -39, -188440, -214620, -151550
167021, 718, 1021, -18, -228200, -175070, -58030
167041, 726, 1064, -14, -267190, -136290, -80010
167061, 854, 1323, -13, -290780, -116620, -165900
167081, 1052, 1725, -36, -300580, -109620, -232330
167101, 1177, 1976, -67, -295120, -113330, -252630
167121, 1116, 1805, -99, -271740, -122010, -208810
167141, 943, 1416, -94, -252980, -114870, -91700
167161, 808, 1179, -43, -279790, -60200, 12670
167181, 753, 1144, -2, -324730, 8680, 2310
167201, 778, 1220, -3, -331450, 32340, -74200
167221, 836, 1290, -41, -282660, -2940, -107590
167241, 824, 1246, -55, -225890, -45920, -72100
167261, 729, 1089, -40, -211960, -37450, -11620
167281, 629, 908, -15, -245140, 46690, 61180
167301, 564, 780, 10, -244160, 58520, 56700
167321, 537, 741, 25, -212800, 39970, 17500
167341, 515, 737, 30, -159110, 840, -25200
167361, 485, 693, 18, -116270, -32690, -19740
167381, 450, 611, 5, -101220, -41370, 30380
167401, 415, 526, 3, -107870, -21560, 76650
167421, 382, 459, 15, -116130, 8190, 87430
167441, 344, 419, 48, -109130, 26530, 60410
167461, 317, 400, 77, -71820, 6580, 16870
167481, 323, 402, 64, -5530, -58660, -21280
167501, 367, 449, 34, 61600, -129640, -56000
167521, 462, 587, 6, 102410, -162190, -96040
167541, 575, 789, 8, 112420, -146790, -131110
167561, 673, 1014, 48, 107940, -106330, -136920
167581, 790, 1214, 47, 128380, -98840, -101640
167601, 948, 1406, -35, 192780, -146860, -58030
167621, 1015, 1499, -74, 232260, -154490, -59990
167641, 867, 1345, 14, 194530, -63070, -78330
167661, 759, 1168, 37, 179550, 2310, -52850
167681, 740, 1061, -3, 250460, -31990, 1120
167701, 768, 1100, -21, 303520, -46900, 12110
167721, 850, 1296, 3, 310030, -9240, -26180
167741, 1018, 1621, -43, 332640, 7700, -65310
167761, 1102, 1755, -78, 362180, 12460, -57960
167781, 936, 1531, -17, 341460, 76580, -10010
167801, 791, 1284, 17, 317800, 145950, 66010
167821, 745, 1145, 8, 342090, 148540, 149170
167841, 781, 1154, -17, 372610, 133420, 175770
167861, 852, 1323, -35, 379540, 141330, 108850
167881, 863, 1421, -34, 359380, 173740, 28840
167901, 755, 1265, -6, 314580, 226660, 59570
167921, 637, 1045, 20, 271320, 268940, 168840
167941, 568, 891, 28, 257320, 269920, 239750
167961, 527, 786, 25, 258930, 247100, 245490
167981, 476, 685, 30, 250110, 228690, 209230
168001, 430, 608, 38, 222600, 222670, 154070
168021, 387, 549, 46, 190750, 216860, 102900
168041, 353, 503, 58, 161490, 206360, 75040
168061, 327, 459, 68, 132650, 190610, 73920
168081, 306, 419, 78, 103670, 165900, 84140
168101, 288, 375, 87, 73640, 132860, 88760
168121, 273, 336, 95, 46200, 91280, 74270
168141, 281, 332, 95, 29610, 35840, 31430
168161, 312, 383, 78, 24780, -30870, -42910
168181, 367, 478, 60, 18410, -92470, -135940
168201, 457, 632, 58, -3640, -128660, -224910
168221, 586, 907, 59, -39200, -142800, -291340
168241, 764, 1247, 51, -71820, -155470, -316890
168261, 963, 1587, 15, -85610, -180530, -288120
168281, 1030, 1633, -40, -80010, -218120, -219170
168301, 886, 1327, -41, -86660, -237090, -158480
168321, 721, 1053, -1, -140350, -194320, -140910
168341, 640, 951, 23, -204190, -136080, -163030
168361, 665, 995, 22, -231980, -123410, -193620
168381, 798, 1221, 2, -232470, -145250, -216300
168401, 1035, 1680, -39, -223860, -175840, -261240
168421, 1191, 1997, -74, -222460, -189210, -315560
168441, 1033, 1687, -69, -239890, -165410, -282030
168461, 839, 1256, -36, -273910, -113610, -131460
168481, 774, 1110, -24, -297290, -73850, -22260
168501, 823, 1242, -27, -295400, -68810, -62370
168521, 889, 1415, -19, -285320, -71120, -161000
168541, 911, 1471, -20, -278740, -64470, -192220
168561, 862, 1346, -39, -256060, -71050, -130900
168581, 768, 1154, -40, -224280, -81060, -33320
168601, 663, 953, -15, -224350, -56770, 37660
168621, 574, 799, 4, -240240, -21700, 53900
168641, 496, 686, 19, -237650, -11060, 22680
168661, 431, 600, 29, -219730, -19460, -14910
168681, 385, 531, 29, -195650, -36610, -23450
168701, 352, 466, 25, -170170, -55930, 3290
168721, 327, 410, 24, -148540, -70630, 45990
168741, 316, 369, 26, -132300, -76790, 77210
168761, 298, 335, 33, -116690, -77490, 81620
168781, 295, 328, 43, -96600, -76230, 58940
168801, 323, 368, 46, -66990, -84140, 15610
168821, 378, 459, 41, -28560, -104510, -39690
168841, 460, 622, 45, 11200, -126700, -96110
168861, 595, 888, 37, 51590, -146720, -147000
168881, 784, 1227, 11, 103740, -179620, -179130
168901, 1084, 1681, -81, 157570, -216160, -165410
168921, 1142, 1736, -83, 186620, -224350, -111090
168941, 892, 1358, 6, 160020, -153510, -49840
168961, 709, 1077, 38, 115010, -46620, -36960
168981, 665, 956, -2, 148470, -29330, -59290
169001, 694, 962, -18, 234500, -80010, -51310
169021, 802, 1165, -5, 274890, -82460, -34790
169041, 1034, 1671, -29, 277760, -40180, -64960
169061, 1261, 1997, -116, 299740, -18690, -142380
169081, 1080, 1768, -75, 346010, -24430, -170100
169101, 803, 1290, -6, 338940, 38780, -77000
169121, 647, 985, 17, 329770, 152600, 128660
169141, 606, 883, 22, 356860, 146230, 139720
169161, 674, 994, 0, 389550, 125790, 77770
169181, 841, 1311, -54, 416430, 106540, -13720
169201, 961, 1567, -84, 388640, 145600, -38290
169221, 833, 1413, -20, 298620, 254380, 47040
169241, 647, 1105, 34, 242900, 318150, 161000
169261, 537, 870, 46, 263200, 283080, 229880
169281, 475, 712, 33, 288750, 228690, 252140
169301, 425, 598, 28, 282240, 204680, 231980
169321, 380, 505, 30, 251790, 205520, 177520
169341, 342, 450, 37, 213500, 213080, 107170
169361, 303, 414, 54, 173460, 219310, 47460
169381, 276, 394, 81, 135800, 213780, 17710
169401, 263, 378, 96, 107940, 180740, 16730
169421, 264, 359, 98, 90650, 120050, 29540
169441, 272, 341, 86, 75460, 50540, 35910
169461, 289, 331, 78, 53060, -5950, 15400
169481, 317, 367, 77, 25200, -45010, -46690
169501, 376, 476, 67, 1120, -79310, -146580
169521, 476, 676, 57, -19110, -110670, -258580
169541, 627, 992, 55, -44100, -129500, -348670
169561, 852, 1457, 50, -70840, -141960, -376670
169581, 1085, 1844, -7, -75600, -173460, -302120
169601, 1048, 1601, -72, -55090, -219590, -146580
169621, 838, 1190, -34, -92400, -193340, -60270
169641, 683, 991, 23, -182280, -108220, -114240
169661, 673, 1021, 31, -220640, -80920, -211540
169681, 785, 1226, 15, -210980, -111720, -267890
169701, 997, 1606, -16, -199640, -145810, -282590
169721, 1202, 1989, -75, -187320, -169960, -286720
169741, 1174, 1905, -104, -191940, -160930, -250880
169761, 951, 1460, -47, -247450, -89460, -141400
169781, 808, 1206, -3, -294560, -27650, -73430
169801, 795, 1202, -19, -276780, -42350, -121170
169821, 836, 1285, -31, -246610, -72870, -177520
169841, 869, 1344, -30, -245980, -69230, -169470
169861, 866, 1346, -28, -253820, -50680, -127540
169881, 793, 1223, -20, -247940, -40740, -80290
169901, 703, 1042, -13, -237720, -37450, -29050
169921, 626, 879, -10, -229530, -38290, -560
169941, 554, 772, 0, -228200, -32550, -12810
169961, 484, 689, 20, -232050, -17780, -36610
169981, 422, 603, 37, -229110, -11830, -30310
170001, 380, 522, 38, -209230, -31500, 4760
170021, 358, 460, 29, -179550, -65310, 38150
170041, 349, 421, 21, -151970, -91560, 47810
170061, 343, 409, 26, -131530, -101010, 32200
170081, 337, 415, 45, -116340, -96180, 3360
170101, 342, 432, 52, -96390, -97650, -25830
170121, 361, 461, 51, -63910, -119700, -48930
170141, 406, 534, 41, -23940, -153370, -67900
170161, 494, 668, 27, 18830, -188090, -88060
170181, 599, 855, 33, 58450, -211890, -108640
170201, 722, 1090, 26, 92400, -222810, -125440
170221, 888, 1340, -33, 132020, -245140, -135100
170241, 1011, 1532, -66, 157220, -254940, -134260
170261, 880, 1346, 12, 131460, -193270, -118370
170281, 749, 1138, 45, 93310, -101010, -82180
170301, 735, 1045, -14, 138740, -104020, -64050
170321, 789, 1101, -46, 228060, -159810, -62160
170341, 824, 1224, 0, 243250, -132300, -90650
170361, 959, 1543, 0, 213220, -52080, -140280
170381, 1130, 1824, -76, 244160, -40600, -179690
170401, 1071, 1699, -67, 304570, -60830, -153510
170421, 876, 1364, -20, 304010, -5390, -72240
170441, 787, 1185, -17, 292320, 65520, -3080
170461, 765, 1151, -19, 314580, 88690, 17570
170481, 791, 1241, -17, 336770, 102410, -7700
170501, 844, 1352, -38, 356790, 114030, -45360
170521, 807, 1279, -43, 372890, 122780, -32970
170541, 710, 1109, -14, 354270, 163170, 41720
170561, 614, 967, 14, 313320, 222950, 101640
170581, 552, 865, 15, 295120, 249410, 109200
170601, 486, 749, 24, 301420, 236880, 110810
170621, 435, 641, 26, 297920, 224770, 133490
170641, 391, 554, 27, 279930, 220850, 151970
170661, 355, 487, 32, 255220, 220850, 145880
170681, 323, 438, 40, 224770, 225610, 120540
170701, 295, 400, 60, 189210, 231700, 87010
170721, 270, 369, 79, 155540, 227010, 55300
170741, 264, 349, 82, 130760, 200270, 29960
170761, 277, 346, 77, 116690, 150920, 10850
170781, 301, 361, 67, 105770, 93870, -9870
170801, 344, 408, 60, 86030, 50050, -41510
170821, 406, 504, 60, 54740, 25480, -90510
170841, 505, 688, 70, 17850, 15750, -157920
170861, 671, 1059, 82, -12530, 7560, -240940
170881, 988, 1714, 11, -18270, -21560, -332080
170901, 1186, 1996, -69, 15820, -90650, -392420
170921, 935, 1448, -31, 33110, -135310, -318710
170941, 690, 936, 39, -108850, -4130, 24850
170961, 601, 790, 44, -114240, -14980, -68110
170981, 651, 957, 32, -93380, -63280, -253540
171001, 805, 1318, 29, -95620, -89530, -392140
171021, 1122, 1930, -29, -91560, -119070, -429240
171041, 1329, 1997, -97, -88340, -126980, -336770
171061, 1104, 1748, -45, -125020, -75530, -140630
171081, 861, 1215, -12, -159320, -33250, -44310
171101, 747, 1075, -4, -162610, -36190, -162330
171121, 725, 1148, 18, -182560, -25900, -305830
171141, 757, 1236, 38, -189700, -26530, -308350
171161, 849, 1334, -3, -159740, -70070, -205310
171181, 884, 1332, -35, -138600, -103180, -117810
171201, 782, 1166, -6, -169540, -73010, -89530
171221, 673, 983, 1, -199500, -45150, -109060
171241, 581, 837, 15, -216300, -34300, -130480
171261, 504, 737, 37, -231700, -24360, -134050
171281, 440, 663, 60, -226870, -36400, -113470
171301, 404, 598, 52, -195720, -81620, -63700
171321, 376, 523, 24, -163590, -134400, -3010
171341, 354, 445, 10, -160230, -152460, 41440
171361, 341, 392, 15, -181650, -132440, 48790
171381, 350, 400, 27, -197400, -104790, 3990
171401, 348, 476, 81, -187600, -93100, -74340
171421, 342, 561, 116, -147770, -121590, -118370
171441, 386, 589, 67, -68950, -225960, -84210
171461, 485, 655, 4, 15470, -345940, -23240
171481, 640, 855, -51, 59990, -392420, -18900
171501, 735, 1056, -4, 40670, -335440, -62160
171521, 785, 1252, 87, -11550, -231000, -83510
171541, 890, 1370, 5, 24010, -243040, -78330
171561, 966, 1451, -97, 129850, -335020, -99190
171581, 841, 1280, -12, 142240, -307370, -139020
171601, 748, 1134, 38, 87080, -194670, -98350
171621, 807, 1121, -10, 118020, -181930, -32690
171641, 914, 1317, -40, 180040, -197820, -44940
171661, 965, 1581, 3, 193270, -157290, -172690
171681, 1116, 1844, -84, 222880, -138110, -266000
171701, 1095, 1695, -95, 275450, -147630, -208180
171721, 883, 1348, 6, 235760, -43120, -58940
171741, 772, 1167, 29, 207550, 57400, 4060
171761, 833, 1244, -58, 297290, 15680, -39200
171781, 900, 1372, -83, 374500, -26320, -109620
171801, 913, 1488, -48, 348950, 46970, -143780
171821, 834, 1382, -16, 306180, 142520, -111160
171841, 720, 1133, -1, 302820, 187460, 17220
171861, 611, 907, 16, 318850, 200900, 127680
171881, 585, 866, -14, 352310, 186970, 121940
171901, 564, 845, -35, 387520, 161700, 60480
171921, 495, 748, -19, 367640, 188930, 40320
171941, 419, 643, 14, 298970, 261870, 62790
171961, 365, 564, 43, 242130, 312830, 83230
171981, 339, 511, 47, 226730, 308560, 94640
172001, 318, 464, 45, 230510, 272440, 105840
172021, 291, 409, 57, 221900, 241710, 115570
172041, 268, 350, 73, 196630, 220640, 114240
172061, 259, 307, 72, 172760, 190050, 90720
172081, 262, 297, 59, 158760, 145180, 39270
172101, 282, 323, 53, 144060, 106610, -35280
172121, 311, 385, 63, 115780, 89740, -121030
172141, 370, 505, 78, 79310, 84910, -204120
172161, 483, 711, 82, 50610, 69300, -270830
172181, 691, 1085, 68, 40040, 31570, -311710
172201, 1051, 1757, -5, 49210, -21070, -330120
172221, 1270, 1997, -85, 72030, -75250, -331170
172241, 979, 1527, -35, 60060, -81620, -267890
172261, 691, 980, 51, -14700, -8260, -124810
172281, 608, 843, 53, -65730, 37800, -66850
172301, 658, 957, 39, -45780, -9170, -147280
172321, 844, 1336, 20, -25620, -63910, -259210
172341, 1135, 1937, -33, -33460, -91630, -356510
172361, 1299, 1997, -66, -43820, -110740, -420350
172381, 1099, 1779, -30, -60900, -99610, -359660
172401, 886, 1276, -3, -90090, -63000, -166460
172421, 790, 1145, -5, -102550, -50120, -71540
172441, 780, 1232, 6, -105280, -61320, -189910
172461, 793, 1309, 35, -130970, -52010, -325080
172481, 854, 1367, 8, -149100, -46830, -317380
172501, 848, 1302, -14, -130270, -84490, -217840
172521, 765, 1139, -3, -119140, -111230, -128100
172541, 673, 973, 2, -143360, -97020, -91910
172561, 569, 814, 20, -174230, -79450, -104860
172581, 481, 710, 48, -205170, -61740, -133560
172601, 413, 632, 70, -231070, -48160, -143640
172621, 380, 570, 55, -228550, -69650, -117460
172641, 364, 519, 31, -196910, -128940, -66010
172661, 350, 462, 14, -169680, -182560, -11410
172681, 323, 413, 12, -169820, -197960, 26880
172701, 304, 382, 35, -188370, -181580, 39340
172721, 291, 373, 49, -202510, -160930, 28770
172741, 292, 395, 63, -195300, -161910, 2310
172761, 299, 429, 68, -168560, -186970, -44240
172781, 342, 485, 52, -71540, -303030, -45710
172801, 427, 589, 22, -12810, -368900, -51800
172821, 564, 799, -7, 28630, -401800, -82110
172841, 730, 1096, -13, 34930, -384930, -121870
172861, 911, 1438, -8, 19530, -340830, -132860
172881, 1034, 1619, -38, 24080, -313950, -110320
172901, 957, 1469, -37, 51240, -297010, -96810
172921, 819, 1228, -17, 74130, -263900, -101360
172941, 740, 1064, -12, 93520, -229320, -87220
172961, 757, 1043, -17, 108220, -193970, -82110
172981, 852, 1240, -10, 118160, -151620, -136500
173001, 1074, 1724, -33, 151970, -134610, -253330
173021, 1271, 1997, -125, 220010, -154840, -303730
173041, 1148, 1799, -106, 242130, -115080, -198380
173061, 897, 1366, -16, 192010, 16940, -66640
173081, 772, 1161, 11, 198870, 81550, -42560
173101, 781, 1177, -38, 282170, 47250, -90650
173121, 822, 1274, -66, 345310, 25480, -152180
173141, 843, 1350, -60, 345170, 71750, -165970
173161, 791, 1270, -33, 314720, 150500, -99050
173181, 706, 1106, -8, 293860, 213640, 10430
173201, 626, 969, 8, 307370, 231070, 61040
173221, 579, 889, -2, 345800, 211890, 50470
173241, 533, 810, -10, 371980, 195370, 43400
173261, 479, 718, -14, 359660, 211960, 62300
173281, 417, 618, -2, 317380, 253680, 85120
173301, 358, 538, 18, 269010, 297080, 92400
173321, 317, 478, 41, 234430, 317520, 87220
173341, 293, 438, 59, 218610, 305620, 80360
173361, 286, 412, 68, 214410, 266840, 74900
173381, 288, 384, 64, 210840, 215950, 66150
173401, 293, 357, 53, 197260, 171710, 44660
173421, 295, 346, 48, 170100, 146860, 1400
173441, 305, 365, 55, 133980, 139020, -65800
173461, 347, 448, 65, 99470, 133000, -148330
173481, 424, 598, 70, 75600, 114800, -227920
173501, 574, 862, 65, 63070, 83580, -288540
173521, 817, 1322, 47, 59010, 46970, -323750
173541, 1126, 1892, -26, 71050, 3080, -330120
173561, 1132, 1818, -68, 88060, -35420, -283010
173581, 826, 1236, 12, 37030, 6860, -161770
173601, 628, 890, 76, -36960, 76230, -76370
173621, 624, 881, 47, -29120, 45080, -120120
173641, 721, 1081, 28, 13440, -33600, -226100
173661, 927, 1501, 13, 7980, -62930, -323680
173681, 1206, 1997, -37, -12110, -73500, -390320
173701, 1244, 1997, -62, -16170, -83930, -372540
173721, 959, 1484, 7, -41440, -57470, -227010
173741, 786, 1124, 18, -77840, -22120, -93240
173761, 743, 1101, -1, -64400, -51030, -139650
173781, 754, 1188, 17, -69930, -68180, -269220
173801, 784, 1280, 46, -111090, -46410, -318290
173821, 856, 1360, 8, -119910, -59080, -267960
173841, 844, 1295, -9, -93030, -110040, -184520
173861, 751, 1120, 2, -103460, -116480, -120190
173881, 662, 965, 9, -141470, -93310, -103740
173901, 576, 843, 21, -166110, -84000, -124810
173921, 475, 718, 51, -190050, -75110, -141400
173941, 398, 607, 66, -209930, -74620, -119280
173961, 352, 512, 50, -206640, -106820, -61250
173981, 335, 447, 26, -185780, -161070, -2590
174001, 319, 408, 16, -174790, -195790, 26740
174021, 295, 380, 27, -185360, -192640, 24710
174041, 269, 356, 49, -203070, -171990, 10500
174061, 253, 348, 62, -205170, -168070, -630
174081, 265, 366, 59, -182420, -199220, -8050
174101, 296, 407, 50, -144900, -251230, -18130
174121, 344, 483, 41, -106050, -302750, -33110
174141, 431, 611, 24, -68320, -346150, -52640
174161, 598, 882, 5, -29120, -382270, -77910
174181, 814, 1277, -20, 2940, -403970, -112420
174201, 1025, 1657, -46, 12670, -399980, -145110
174221, 1043, 1639, -48, 7910, -373870, -138530
174241, 862, 1306, -24, 9870, -335300, -90300
174261, 728, 1052, -14, 23730, -294910, -62370
174281, 676, 928, -9, 45780, -262080, -58940
174301, 716, 986, -2, 62370, -227850, -66150
174321, 869, 1334, -5, 74270, -192080, -118020
174341, 1129, 1919, -65, 104790, -177590, -231630
174361, 1260, 1997, -123, 160790, -191660, -325290
174381, 1004, 1521, -63, 193970, -173250, -256760
174401, 780, 1135, 7, 162540, -66080, -92120
174421, 696, 1008, 10, 143850, 29470, -29400
174441, 721, 1068, -25, 192150, 35560, -77210
174461, 822, 1269, -58, 263900, 3920, -149870
174481, 907, 1444, -63, 301210, 7070, -200830
174501, 858, 1377, -39, 289940, 65870, -184660
174521, 713, 1108, 4, 256270, 153930, -78050
174541, 611, 922, 9, 245980, 213010, 36750
174561, 562, 839, -15, 286580, 205800, 60130
174581, 512, 756, -27, 341250, 172130, 30170
174601, 437, 652, -13, 316610, 231350, 54530
174621, 374, 550, 7, 271530, 286510, 75180
174641, 334, 499, 18, 243390, 312970, 80780
174661, 310, 465, 28, 228900, 315910, 83860
174681, 293, 429, 46, 217210, 307930, 86310
174701, 296, 413, 59, 213850, 280420, 75110
174721, 335, 439, 42, 222460, 231910, 40530
174741, 378, 471, 14, 222320, 196910, -9660
174761, 399, 501, 8, 190960, 209650, -71470
174781, 412, 562, 37, 142450, 250600, -146230
174801, 457, 694, 72, 119560, 262500, -216020
174821, 579, 899, 48, 140490, 216790, -240170
174841, 720, 1095, 29, 160160, 168980, -203070
174861, 795, 1209, 44, 145810, 163310, -152320
174881, 832, 1284, 32, 143920, 148470, -150360
174901, 857, 1244, -29, 169400, 103250, -177800
174921, 703, 1093, 71, 175910, 75880, -198380
174941, 668, 1001, 40, 190400, 71400, -225470
174961, 83, 256, 7, 277620, -7630, -304850
174981, 1546, 1997, -1021, 642110, -354830, -860370
175001, 1559, 1997, -188, 583310, -266630, -1277570
175021, -231, -1025, 535, 583730, 199290, -638400
175041, 1339, 1997, -690, 863240, 447440, -650300
175061, 139, 958, -728, 695310, 1002680, -476770
175081, -1658, 388, -119, 669060, 1527750, -239120
175101, -138, 1486, -599, 809760, 1612660, -771190
175121, 846, 1997, -298, 909860, 1072680, -1356600
175141, 755, 1991, -391, 892080, 899500, -1074780
175161, 706, 1997, -92, 705180, 873460, -709870
175181, 889, 1924, 1679, 890750, 488110, -503230
175201, 560, 167, 561, 582190, 357490, 116760
175221, 596, 477, -424, -523180, -32760, 338380
175241, 383, 676, -142, -834260, -286650, 313530
175261, 641, 1154, -201, -744170, -315140, 444710
175281, 215, 1449, -594, -613760, -194250, 206290
175301, -1403, 1719, 404, -591500, -421400, 232050
