T [ms],AccX [mg],AccY [mg],AccZ [mg],GyroX [mdps],GyroY [mdps],GyroZ [mdps]
59274, 577, 754, -341, -28560, 11270, -2170
59294, 655, 777, -273, -1260, 9520, 7980
59314, 597, 753, -320, 7770, 7980, 7000
59334, 565, 761, -235, 4760, 840, 12110
59354, 538, 788, -226, 16030, -700, 9940
59374, 559, 810, -238, 13020, 490, 4900
59394, 569, 789, -244, -1750, 7770, -3710
59414, 608, 791, -351, -30800, 18340, -11340
59434, 593, 756, -312, -43540, 13090, -12040
59454, 530, 787, -280, -20790, 0, -3150
59474, 509, 783, -239, 3150, -7910, 8260
59494, 531, 787, -237, 10290, -9240, 12110
59514, 553, 776, -264, -3990, 3080, 7140
59534, 561, 781, -264, -14420, 9310, 280
59554, 605, 743, -282, -11200, 3150, -700
59574, 600, 780, -263, -7420, -3710, 1820
59594, 548, 810, -183, 2310, -6370, 3570
59614, 581, 786, -240, 7280, -5390, 700
59634, 588, 766, -264, -6370, -2030, -4340
59654, 579, 763, -226, -12530, 2870, -2870
59674, 560, 815, -175, -1610, -420, 2520
59694, 614, 793, -244, 1610, -2940, 3850
59714, 566, 783, -231, -17780, -1050, -5320
59734, 570, 790, -234, -23100, 4130, -2310
59754, 567, 787, -225, -12880, 1120, -630
59774, 558, 793, -214, -7700, -4130, -2240
59794, 549, 787, -189, -3570, -6090, -1190
59814, 571, 795, -187, 1120, -2380, 2800
59834, 579, 800, -206, -8050, 2520, 280
59854, 596, 787, -223, -17010, 4130, -2730
59874, 579, 800, -199, -9590, 2380, -630
59894, 576, 807, -203, -210, 1820, 3570
59914, 581, 813, -209, 3640, -700, 2520
59934, 573, 805, -226, 4480, -3150, 420
59954, 560, 815, -212, 1820, -1960, -210
59974, 570, 808, -217, 4270, -980, 2520
59994, 550, 808, -221, 2450, -560, 840
60014, 562, 810, -223, -3290, 1330, 490
60034, 553, 814, -181, -2590, 1190, 1400
60054, 576, 800, -193, 2730, 490, 1820
60074, 574, 801, -194, -2310, 1120, -1750
60094, 541, 785, -164, -11620, 2800, -3990
60114, 564, 797, -197, -17850, 1960, -6370
60134, 564, 805, -196, -20580, 280, -6020
60154, 571, 809, -188, -9870, -1540, -3780
60174, 562, 810, -143, 1820, 1540, -1120
60194, 578, 821, -160, -3430, 3780, -3640
60214, 548, 811, -179, -9240, 980, -3850
60234, 547, 798, -180, -3990, -3010, -2240
60254, 519, 796, -154, 4480, -4060, -140
60274, 509, 799, -134, 7980, -2310, 3430
60294, 540, 774, -122, -4340, -1330, -1540
60314, 594, 859, -167, -28840, 700, -12950
60334, 524, 851, -157, -42210, 3850, -12040
60354, 527, 835, -137, -38710, 7000, -9380
60374, 537, 855, -107, -38010, 5250, -14770
60394, 559, 847, -77, -43750, -2030, -14070
60414, 579, 838, -87, -47810, -14630, -7140
60434, 569, 829, -163, -43400, -18970, 2800
60454, 518, 813, -128, -17150, -10220, 19950
60474, 530, 844, -55, 18480, 210, 23730
60494, 527, 855, -49, 24430, 3290, 17430
60514, 525, 827, -85, 9030, 4900, 8890
60534, 564, 832, -107, -5250, 4340, -1190
60554, 543, 841, -83, -5320, 4340, -2240
60574, 537, 826, -68, -1050, 1540, 1400
60594, 572, 830, -58, -2450, -1120, 1610
60614, 579, 828, -74, -10710, -4200, 10010
60634, 571, 830, -57, -24850, -2870, 27440
60654, 574, 829, -64, -42280, -10990, 36120
60674, 587, 834, -59, -56280, -21070, 36400
60694, 604, 821, -52, -54880, -24010, 38080
60714, 578, 798, -79, -44100, -23870, 36680
60734, 572, 805, -51, -26180, -14350, 29330
60754, 580, 812, -14, -1120, -10780, 17570
60774, 609, 810, 0, 13930, -5460, 840
60794, 621, 803, -10, 10010, -3990, -7840
60814, 614, 800, -39, 2590, 1190, -5250
60834, 595, 799, -46, -770, 2380, 1610
60854, 589, 795, -33, -350, 3290, 4760
60874, 602, 804, -23, 1890, 4060, 2800
60894, 607, 811, -23, 3780, 1120, 1190
60914, 609, 830, -21, 4130, 210, 1750
60934, 618, 824, -29, 2520, 2030, 70
60954, 598, 816, -37, 1260, 280, -2170
60974, 584, 810, -52, 560, -490, 560
60994, 582, 813, -35, 1120, -420, 1120
61014, 581, 813, -28, 5460, 140, -210
61034, 575, 812, -28, 6300, -1400, 980
61054, 580, 802, -34, 3150, -280, 2800
61074, 591, 805, -36, 420, -490, 350
61094, 600, 810, -34, 490, -1680, -1400
61114, 600, 805, -25, 1050, -2030, -1540
61134, 579, 794, -35, 2030, -3570, -630
61154, 576, 805, -33, 2590, -6020, 2940
61174, 593, 805, -42, 4130, -6160, 1190
61194, 611, 812, -25, 5740, -5390, -3010
61214, 626, 811, -30, 7280, 1540, -4550
61234, 616, 812, -29, 2450, 4550, -4130
61254, 592, 796, -13, 2940, 910, -1260
61274, 617, 813, -54, 5880, -3780, 1400
61294, 546, 794, 7, -6020, -14910, 3640
61314, 586, 805, -2, -11060, -6720, 11900
61334, 605, 807, -24, -20860, -15610, 17290
61354, 613, 821, -21, -31220, -17990, 17500
61374, 619, 826, -32, -41090, -18130, 9380
61394, 583, 791, -42, -34930, -25620, 1680
61414, 599, 807, -36, -24570, -32830, -1680
61434, 622, 841, -14, -10220, -38570, 4200
61454, 612, 810, -26, 3430, -43120, 4410
61474, 603, 790, -23, 2170, -39550, -4970
61494, 611, 807, -15, -4480, -19950, -7840
61514, 584, 776, -12, -4760, 490, -4480
61534, 598, 784, 1, -9030, 16380, -910
61554, 605, 808, 37, -18060, 24780, 6510
61574, 582, 809, -53, -28700, 25060, 12040
61594, 532, 815, -41, -34020, 12740, 17220
61614, 600, 782, 14, -14420, 2870, 16310
61634, 615, 798, 32, 5110, -2450, 4690
61654, 622, 807, 15, 4690, -7560, 1680
61674, 592, 812, 7, -5530, -14210, 5880
61694, 604, 801, -4, -7630, -15960, 11970
61714, 617, 802, 9, -6930, -16660, 8260
61734, 618, 806, 2, -490, -15540, 980
61754, 595, 781, 0, 3500, -15120, -3500
61774, 577, 751, 12, 840, -11550, -2940
61794, 587, 757, 30, 2800, -9730, -3640
61814, 656, 854, 20, 4760, -16100, -5740
61834, 661, 863, -31, 5460, -31010, -9590
61854, 591, 823, 12, -13860, -24360, -8330
61874, 598, 825, 15, -41510, 15330, -2100
61894, 587, 790, 15, -28770, 12040, 420
61914, 577, 778, 28, -14700, -10220, 19740
61934, 579, 769, 36, -32830, -26670, 17920
61954, 598, 784, 34, -23100, -57820, 17920
61974, 632, 817, 3, -26530, -80220, 2310
61994, 642, 833, -13, -60060, -63210, -17780
62014, 625, 833, 10, -69580, -37590, -17850
62034, 596, 811, 31, -36050, -45150, 210
62054, 601, 798, 2, -7280, -71610, 12390
62074, 570, 765, 5, -19740, -65240, 9800
62094, 584, 782, 16, -40180, -45080, -2100
62114, 599, 813, 42, -43260, -43890, 490
62134, 613, 813, 37, -46760, -57330, 18760
62154, 620, 834, 41, -61950, -71400, 13230
62174, 641, 828, 37, -73010, -89320, -6790
62194, 793, 704, -174, -67760, -117110, -8540
62214, 615, 741, 21, -23100, -68110, 31220
62234, 589, 715, 17, -7980, 2380, 42560
62254, 602, 765, 52, -19530, 18480, 770
62274, 601, 803, 54, -13860, 2520, -13230
62294, 626, 833, 22, 210, -48370, -26670
62314, 613, 821, 28, -11970, -62720, -26880
62334, 601, 817, 44, -39830, -52360, -5670
62354, 607, 811, 31, -52290, -62090, 16170
62374, 600, 786, 26, -57330, -78330, 38010
62394, 583, 758, 41, -74550, -78120, 36190
62414, 583, 781, 44, -88340, -85470, -770
62434, 611, 828, 26, -79520, -116900, -37590
62454, 630, 856, 13, -71960, -142590, -41160
62474, 629, 855, 17, -88760, -136150, -15050
62494, 611, 818, 30, -110110, -119350, 21910
62514, 610, 800, 21, -110110, -124040, 37660
62534, 607, 798, 12, -99400, -141890, 17010
62554, 591, 783, 21, -103880, -140840, -10360
62574, 581, 779, 24, -112000, -134400, -21700
62594, 588, 784, 14, -109620, -139440, -18480
62614, 600, 794, 11, -105350, -143360, -4340
62634, 596, 784, 20, -107940, -135310, 15470
62654, 607, 788, 15, -107240, -129850, 23940
62674, 633, 821, 3, -96460, -135450, 6370
62694, 642, 848, 3, -90580, -131740, -23170
62714, 623, 840, 18, -95760, -110530, -34790
62734, 601, 806, 20, -94080, -95830, -16870
62754, 590, 767, 8, -75810, -101430, 15400
62774, 589, 739, 4, -58590, -104930, 37660
62794, 592, 741, 8, -55160, -90300, 34370
62814, 607, 775, 11, -56910, -68040, 5810
62834, 626, 821, 10, -53690, -52010, -28420
62854, 633, 845, 18, -46760, -39970, -39830
62874, 636, 842, 18, -35140, -32130, -21630
62894, 643, 834, 7, -14490, -33810, 6720
62914, 638, 814, -1, 4900, -33110, 25550
62934, 613, 777, 6, 8050, -12530, 29050
62954, 588, 750, 17, 1540, 19250, 17220
62974, 579, 752, 22, 3430, 38710, -3710
62994, 591, 775, 19, 18900, 38920, -18270
63014, 607, 793, 11, 39200, 31640, -14350
63034, 614, 791, 10, 51310, 34160, 6930
63054, 618, 794, 10, 52430, 49210, 23450
63074, 629, 815, 14, 50960, 66570, 16450
63094, 635, 842, 19, 52990, 79100, -6930
63114, 626, 841, 22, 58940, 85050, -24430
63134, 612, 814, 18, 69300, 83160, -18480
63154, 593, 774, 14, 80150, 78050, 7000
63174, 572, 737, 16, 82110, 81480, 31990
63194, 562, 721, 25, 74970, 93310, 38710
63214, 538, 755, 72, 69020, 100590, 23590
63234, 622, 823, 23, 66640, 83440, -10710
63254, 657, 883, 15, 60970, 47460, -44870
63274, 660, 895, 23, 56350, 45430, -39550
63294, 570, 856, 88, 45780, 57400, -6790
63314, 553, 808, 62, 40530, 57610, 25060
63334, 612, 814, 20, 26530, 17570, 23870
63354, 598, 791, 33, -5110, -19950, 2940
63374, 598, 780, 29, -22470, -18830, 3080
63394, 613, 797, 13, -18760, -30100, 3990
63414, 604, 796, 25, -13860, -39550, -1050
63434, 590, 775, 41, -27930, -24430, 2800
63454, 607, 791, 25, -35980, -19460, 10010
63474, 633, 815, 4, -19460, -44520, 2590
63494, 622, 822, 19, -12040, -54460, -12110
63514, 602, 806, 35, -30660, -29050, -16380
63534, 606, 791, 25, -40110, -15120, -3290
63554, 617, 794, 8, -24920, -32970, 12390
63574, 596, 772, 22, -14210, -44170, 15330
63594, 588, 769, 31, -24640, -25900, 11200
63614, 598, 781, 20, -28000, -16450, 840
63634, 618, 804, 10, -16730, -27510, -7770
63654, 624, 815, 19, -12040, -29750, -7070
63674, 621, 821, 30, -18900, -13930, -1960
63694, 627, 823, 20, -18690, -5740, 910
63714, 615, 797, 14, -5390, -15330, 3080
63734, 595, 766, 22, 420, -15890, 12390
63754, 587, 760, 23, -3150, 4340, 7210
63774, 596, 775, 21, 3430, 3220, -700
63794, 607, 788, 21, 4130, 7840, 2940
63814, 617, 800, 25, 4200, 12950, 6440
63834, 636, 832, 18, 13510, 8190, -2310
63854, 647, 857, 13, 20230, 7840, -10780
63874, 642, 850, 18, 16380, 19880, -4690
63894, 624, 820, 22, 15190, 27720, 10360
63914, 608, 790, 20, 20650, 26460, 19600
63934, 595, 772, 20, 24080, 26460, 16660
63954, 582, 757, 25, 23800, 29540, 10850
63974, 579, 747, 24, 26110, 27580, 6720
63994, 586, 758, 20, 28560, 23520, 2310
64014, 599, 779, 23, 26320, 25480, -1960
64034, 616, 811, 25, 23940, 28350, -6440
64054, 630, 831, 23, 23940, 27860, -5810
64074, 636, 838, 22, 24360, 25900, 2380
64094, 644, 846, 23, 25970, 22400, 7560
64114, 643, 848, 19, 27930, 19320, 3710
64134, 624, 823, 21, 24920, 22540, 490
64154, 591, 779, 30, 17500, 29260, 7770
64174, 570, 744, 32, 15890, 26040, 17780
64194, 573, 737, 25, 20930, 12880, 18130
64214, 585, 753, 21, 22050, 4690, 8330
64234, 599, 776, 27, 14070, 7910, -3850
64254, 616, 812, 28, 5530, 11340, -13440
64274, 641, 850, 21, 5110, 5460, -20090
64294, 648, 865, 25, 4620, 1400, -16940
64314, 641, 856, 27, 560, 2450, -3360
64334, 626, 823, 23, 1890, -3570, 11270
64354, 611, 789, 16, 4480, -11200, 17920
64374, 590, 765, 27, -1820, -7770, 12530
64394, 581, 759, 33, -10150, -2660, -700
64414, 585, 767, 24, -9240, -10010, -11270
64434, 588, 767, 23, -7350, -19180, -9660
64454, 591, 772, 28, -12670, -19180, -210
64474, 611, 797, 25, -15470, -20930, 3080
64494, 635, 833, 17, -12530, -28280, -3010
64514, 645, 849, 21, -15330, -27370, -10360
64534, 637, 843, 28, -23870, -18480, -12530
64554, 630, 837, 25, -23450, -19600, -11270
64574, 621, 816, 17, -15050, -29610, -6020
64594, 600, 782, 21, -15610, -28070, 8680
64614, 589, 758, 26, -22540, -18900, 22050
64634, 596, 765, 19, -22050, -19320, 17290
64654, 605, 784, 20, -19040, -22050, -1190
64674, 603, 795, 27, -22610, -15750, -15260
64694, 604, 797, 27, -23660, -12390, -14840
64714, 614, 798, 17, -14420, -21560, -3850
64734, 618, 801, 11, -5460, -29120, 7350
64754, 614, 796, 20, -7840, -20580, 13090
64774, 617, 800, 23, -13440, -7490, 10360
64794, 618, 806, 19, -10010, -6370, -1330
64814, 611, 801, 20, -4060, -8610, -10080
64834, 600, 791, 23, -1540, -5670, -7910
64854, 596, 776, 20, 2450, -4340, 3150
64874, 595, 766, 14, 7980, -5670, 16870
64894, 596, 761, 20, 7700, -350, 24150
64914, 609, 785, 23, 3360, 10010, 16310
64934, 631, 828, 22, 6090, 11550, -5810
64954, 646, 860, 17, 14490, 6020, -23170
64974, 640, 854, 16, 19600, 4830, -20370
64994, 619, 814, 19, 20300, 9660, -280
65014, 596, 772, 21, 19950, 16170, 22400
65034, 577, 741, 23, 19810, 20580, 31850
65054, 571, 728, 24, 19460, 23100, 27020
65074, 584, 752, 25, 20650, 22050, 12110
65094, 615, 805, 19, 24290, 16520, -8400
65114, 644, 856, 15, 27370, 12180, -22470
65134, 654, 873, 22, 24710, 17010, -18830
65154, 642, 857, 27, 17710, 27790, 630
65174, 632, 827, 21, 17010, 30030, 19740
65194, 610, 793, 18, 25340, 20230, 23240
65214, 579, 752, 25, 29330, 15050, 15890
65234, 557, 722, 27, 24220, 19250, 9450
65254, 554, 710, 26, 19950, 20160, 7700
65274, 561, 722, 27, 17570, 17360, 9730
65294, 588, 761, 30, 12250, 17570, 10290
65314, 627, 822, 25, 9380, 14420, 1750
65334, 659, 874, 17, 13440, 3710, -14140
65354, 660, 884, 23, 15470, -2590, -25200
65374, 644, 861, 23, 8260, 3710, -21700
65394, 619, 820, 22, 3220, 8470, -5110
65414, 596, 774, 25, 3220, 7490, 18200
65434, 582, 746, 30, -280, 8750, 34720
65454, 591, 758, 27, -3710, 8050, 31010
65474, 613, 799, 19, -70, -1820, 6300
65494, 622, 825, 18, 3360, -11130, -24640
65514, 611, 820, 29, -2940, -7140, -35070
65534, 615, 813, 31, -13230, 2730, -15120
65554, 630, 820, 17, -11620, -2800, 11480
65574, 627, 814, 15, -4130, -15890, 16870
65594, 606, 794, 29, -15400, -3220, 420
65614, 598, 785, 27, -15610, -5460, -15960
65634, 596, 783, 19, -9170, -15190, -16940
65654, 589, 775, 25, -12810, -12320, -350
65674, 590, 772, 30, -16940, -9240, 17710
65694, 615, 790, 21, -10010, -19320, 19600
65714, 639, 824, 13, -5880, -24920, 1470
65734, 645, 849, 19, -13720, -14210, -23590
65754, 636, 854, 26, -18130, -5810, -33110
65774, 623, 833, 23, -11620, -11270, -16800
65794, 599, 788, 20, -5040, -17920, 15190
65814, 575, 735, 20, -5040, -15960, 39690
65834, 571, 719, 21, -7490, -11270, 37240
65854, 588, 745, 21, -8540, -9800, 8120
65874, 611, 793, 20, -8890, -9520, -27440
65894, 631, 840, 23, -9940, -6580, -45360
65914, 647, 875, 23, -8190, -5390, -35630
65934, 648, 868, 18, -1610, -9240, -3150
65954, 636, 829, 15, 5390, -12880, 30800
65974, 607, 774, 16, 4130, -6510, 41790
65994, 582, 740, 26, -1680, 4760, 24990
66014, 575, 745, 26, -420, 5810, -5740
66034, 585, 768, 22, 5740, -840, -24430
66054, 600, 792, 23, 8960, -4480, -18270
66074, 619, 810, 21, 9170, -3430, 1190
66094, 639, 833, 17, 9380, -980, 15330
66114, 654, 854, 18, 9870, 2100, 13230
66134, 648, 854, 23, 8470, 7630, 70
66154, 626, 833, 24, 8750, 10570, -10780
66174, 602, 795, 21, 13790, 7070, -8540
66194, 577, 753, 21, 17010, 5040, 9800
66214, 564, 723, 25, 14280, 8610, 31570
66234, 572, 723, 26, 11830, 10150, 37100
66254, 601, 766, 19, 13090, 6370, 16730
66274, 629, 827, 21, 11760, 6650, -17570
66294, 642, 862, 28, 6510, 13020, -38990
66314, 641, 865, 24, 7840, 11480, -32200
66334, 630, 833, 16, 15610, 2310, -490
66354, 602, 778, 20, 16450, 1960, 35280
66374, 575, 734, 25, 8680, 11900, 49070
66394, 567, 719, 29, 4130, 15820, 33110
66414, 575, 741, 24, 6510, 9100, -70
66434, 593, 778, 25, 8050, 2520, -27230
66454, 614, 814, 24, 6790, 490, -32060
66474, 632, 839, 21, 6230, -1050, -14840
66494, 647, 848, 19, 5110, -980, 11340
66514, 650, 849, 20, 2240, 2240, 25340
66534, 646, 845, 22, 0, 5250, 15050
66554, 629, 833, 21, 1960, 3150, -9590
66574, 599, 795, 24, 3290, 1610, -19670
66594, 573, 752, 27, 700, 3920, -2520
66614, 562, 722, 25, -490, 3080, 22890
66634, 569, 720, 23, 280, -980, 35700
66654, 593, 758, 24, -770, -3010, 25270
66674, 629, 819, 26, -3850, -2870, -5320
66694, 665, 893, 18, -3990, -4970, -38920
66714, 679, 927, 18, -1120, -8470, -53200
66734, 651, 881, 21, -2380, -4760, -31220
66754, 607, 800, 27, -4970, 1260, 16660
66774, 575, 727, 23, -3360, 630, 55090
66794, 558, 696, 21, -210, -3920, 55230
66814, 551, 698, 25, -490, -5460, 21140
66834, 558, 724, 29, -5600, -1750, -17430
66854, 585, 771, 30, -9800, -420, -37030
66874, 623, 822, 22, -7840, -7070, -32480
66894, 649, 855, 17, -3710, -14070, -12040
66914, 655, 862, 25, -4410, -11830, 9310
66934, 660, 863, 21, -6790, -6300, 16240
66954, 647, 848, 15, -3570, -8050, 4060
66974, 619, 816, 22, -630, -8820, -11410
66994, 592, 784, 29, -4900, -140, -11830
67014, 582, 760, 25, -6300, 3850, 2660
67034, 584, 748, 17, 1190, -5040, 20510
67054, 589, 746, 20, 5530, -10500, 28770
67074, 595, 768, 26, -210, -3220, 18550
67094, 615, 807, 23, -4130, 2100, -7350
67114, 625, 831, 22, 280, -2590, -30100
67134, 616, 818, 25, 3080, -5250, -29190
67154, 603, 792, 27, 1470, -1680, -4830
67174, 602, 770, 21, 3850, -2450, 22470
67194, 605, 771, 17, 8750, -6930, 31850
67214, 610, 785, 23, 7000, -3500, 20720
67234, 620, 817, 24, 1820, 4270, -3850
67254, 626, 837, 20, 2800, 4480, -28070
67274, 621, 830, 22, 7140, 700, -29960
67294, 609, 799, 26, 8750, 630, -4620
67314, 605, 778, 21, 9240, 1680, 27440
67334, 606, 772, 18, 11410, 140, 38640
67354, 605, 782, 22, 11830, 840, 21280
67374, 612, 805, 28, 7420, 7280, -7840
67394, 620, 823, 26, 9660, 4480, -22750
67414, 627, 832, 18, 14630, -1470, -2030
67434, 618, 809, 21, 11970, 2870, 22260
67454, 605, 781, 24, 7420, 9030, 31710
67474, 597, 766, 23, 7700, 8120, 19950
67494, 593, 767, 21, 7770, 6720, -1540
67514, 596, 780, 27, 5670, 7840, -17010
67534, 607, 805, 27, 7070, 4340, -17150
67554, 626, 826, 15, 11830, -3150, -4130
67574, 625, 814, 16, 8190, 840, 14350
67594, 606, 791, 26, -630, 11340, 22540
67614, 595, 772, 27, -140, 9800, 12880
67634, 591, 768, 22, 5670, 700, -1680
67654, 591, 771, 22, 5880, -2100, -8120
67674, 597, 780, 23, 2240, 140, -4340
67694, 616, 803, 20, 2520, -1960, 770
67714, 629, 820, 17, 1960, -2240, 2590
67734, 626, 820, 26, -4550, 5670, 3220
67754, 620, 817, 27, -5670, 6790, -420
67774, 625, 820, 16, 3150, -4550, -6160
67794, 619, 810, 15, 6790, -8890, -3710
67814, 603, 785, 24, -1120, 1470, 7420
67834, 598, 780, 25, -5670, 7070, 14210
67854, 613, 790, 18, -910, 700, 9590
67874, 626, 815, 21, 840, -1750, -490
67894, 630, 831, 26, -2100, 2030, -9380
67914, 633, 837, 19, 700, -770, -12740
67934, 623, 819, 17, 4200, -3990, -4900
67954, 606, 796, 22, 840, 1330, 10150
67974, 598, 775, 23, -1680, 5390, 20580
67994, 596, 768, 22, 420, 3080, 19740
68014, 599, 775, 20, 2030, 140, 7630
68034, 605, 789, 22, 1470, 0, -7280
68054, 614, 809, 23, 1330, 210, -14350
68074, 624, 822, 18, 2380, -1190, -10710
68094, 625, 819, 20, 2730, -1400, 2100
68114, 616, 804, 23, 1190, 1680, 14770
68134, 606, 787, 23, 980, 2590, 15050
68154, 596, 774, 20, 3850, -980, 5320
68174, 584, 759, 20, 5320, -3010, -2730
68194, 578, 753, 23, 2660, -910, -4760
68214, 575, 749, 22, 490, 350, -980
68234, 589, 762, 25, -560, 560, 6790
68254, 618, 805, 22, -1190, -420, 7770
68274, 656, 860, 15, 2030, -5250, -4200
68294, 673, 894, 15, 4410, -6160, -18130
68314, 659, 884, 25, 560, 1540, -21700
68334, 634, 844, 22, 70, 4900, -10010
68354, 605, 788, 17, 7210, -840, 12950
68374, 572, 735, 22, 9310, -1400, 32340
68394, 555, 703, 28, 4410, 4410, 35420
68414, 561, 713, 25, 3500, 4060, 20580
68434, 587, 759, 18, 7140, -3360, -6160
68454, 614, 809, 20, 6650, -5810, -29120
68474, 635, 850, 26, 1820, -630, -32480
68494, 654, 871, 19, 1610, -70, -18970
68514, 658, 866, 13, 7140, -5880, 280
68534, 637, 831, 19, 7420, -3850, 17640
68554, 611, 792, 24, 1610, 5880, 22330
68574, 596, 775, 21, 1680, 6930, 10570
68594, 585, 763, 20, 6090, 1890, -2380
68614, 582, 761, 27, 5110, 2310, -4130
68634, 599, 782, 24, 2100, 4340, 2520
68654, 633, 823, 16, 5390, -1330, 6370
68674, 649, 852, 15, 9100, -6580, 840
68694, 639, 848, 25, 2940, 1890, -6510
68714, 622, 824, 26, -2940, 10430, -8960
68734, 598, 784, 21, 3640, 2660, -4130
68754, 574, 743, 20, 10850, -6650, 10710
68774, 565, 719, 28, 7980, -4270, 26600
68794, 582, 740, 21, 3010, -420, 28560
68814, 612, 790, 17, 3920, -4620, 10710
68834, 636, 838, 24, 2170, -4900, -15470
68854, 653, 881, 27, -3990, 1330, -32480
68874, 657, 883, 15, -1050, -2380, -32620
68894, 627, 827, 11, 7770, -12320, -11130
68914, 575, 741, 25, 4970, -7000, 24920
68934, 542, 682, 33, -7070, 8400, 50960
68954, 545, 683, 24, -9100, 8750, 44870
68974, 562, 715, 19, -1260, -4760, 11270
68994, 587, 762, 28, -1400, -8400, -21070
69014, 629, 836, 25, -9100, -1750, -34160
69034, 677, 901, 10, -7910, -5250, -32060
69054, 684, 913, 10, 490, -14560, -19110
69074, 656, 874, 27, -2660, -6300, 3080
69094, 632, 830, 25, -11270, 8960, 20720
69114, 621, 803, 11, -3640, 2730, 19810
69134, 601, 781, 16, 8470, -8960, 8260
69154, 587, 770, 28, 3850, -280, 1750
69174, 602, 787, 26, -5040, 12740, 4340
69194, 633, 821, 14, 630, 6160, 7280
69214, 646, 842, 16, 6370, 980, -1680
69234, 640, 850, 28, 2030, 9310, -6510
69254, 633, 841, 19, 9730, 1610, -8610
69274, 609, 798, 11, 13580, -1820, 2660
69294, 563, 729, 23, 3150, 12250, 23940
69314, 528, 678, 36, -3990, 19530, 34860
69334, 529, 666, 30, 2380, 7140, 27720
69354, 550, 690, 19, 8820, -6300, 8540
69374, 574, 731, 21, 2870, -3150, -13160
69394, 603, 788, 28, -6580, 6300, -28840
69414, 637, 851, 25, -5740, 4690, -31920
69434, 666, 892, 20, 630, -2450, -18900
69454, 675, 896, 23, 2520, -2380, 3500
69474, 670, 882, 22, 5110, -1680, 17360
69494, 661, 866, 12, 11760, -5810, 12320
69514, 637, 835, 18, 10780, -980, 2030
69534, 612, 805, 32, 3920, 10290, -1120
69554, 608, 799, 28, 7140, 7070, -1050
69574, 617, 805, 20, 17220, -5670, 2030
69594, 613, 798, 16, 17150, -5880, 8400
69614, 594, 770, 23, 8330, 4480, 10920
69634, 567, 735, 28, 3500, 8960, 7700
69654, 545, 706, 26, 3710, 5530, 4200
69674, 530, 683, 27, 2380, 2240, 5950
69694, 533, 679, 32, -280, 70, 12180
69714, 564, 717, 26, -560, -5040, 13790
69734, 613, 785, 21, -280, -10430, 2590
69754, 665, 875, 21, -2450, -9870, -17920
69774, 716, 965, 25, -4620, -5670, -36540
69794, 757, 1046, 16, 980, -9030, -42910
69814, 761, 1050, 7, 12740, -18340, -27510
69834, 702, 943, 6, 15260, -14490, 9240
69854, 619, 812, 22, 5950, 3150, 43190
69874, 552, 705, 30, -1610, 15120, 53760
69894, 528, 657, 22, 140, 10780, 41650
69914, 479, 596, 34, 1050, 3780, 22540
69934, 466, 574, 37, -7210, 5530, 11200
69954, 469, 582, 46, -15050, 4690, 4970
69974, 519, 648, 38, -14000, -7420, -1400
69994, 601, 763, 26, -8680, -23450, -13720
70014, 695, 919, 29, -11200, -24850, -29680
70034, 793, 1096, 33, -15050, -18480, -48790
70054, 863, 1235, 11, -4480, -25340, -68110
70074, 802, 1142, 3, 10430, -36540, -61810
70094, 649, 895, 20, 210, -15680, 3570
70114, 522, 675, 43, -18620, 13160, 81690
70134, 448, 549, 39, -21560, 15610, 109270
70154, 424, 493, 37, -12530, -980, 87990
70174, 424, 491, 43, -11410, -8470, 45500
70194, 462, 558, 50, -18550, -7630, -2940
70214, 547, 698, 43, -20720, -15610, -51310
70234, 684, 922, 23, -14420, -31360, -88060
70254, 812, 1155, 19, -8610, -39060, -101150
70274, 841, 1226, 30, -13160, -25480, -74900
70294, 749, 1055, 26, -13790, -15260, -10430
70314, 631, 825, 14, -2660, -21840, 59990
70334, 530, 655, 25, -1330, -15890, 93240
70354, 467, 573, 45, -16800, 9310, 77350
70374, 453, 561, 54, -24430, 20230, 37870
70394, 481, 602, 43, -14140, 3220, 4200
70414, 547, 687, 37, -1890, -20440, -16170
70434, 637, 829, 31, 560, -31500, -32480
70454, 751, 1029, 22, -490, -29820, -51940
70474, 815, 1164, 15, 3990, -25830, -68880
70494, 751, 1069, 30, 210, -11060, -52780
70514, 635, 863, 37, -10500, 8050, 10360
70534, 552, 699, 28, -2450, 4970, 69440
70554, 496, 609, 28, 10150, -3990, 81060
70574, 468, 573, 39, 7140, 3010, 59500
70594, 482, 589, 49, -2870, 15260, 35420
70614, 554, 694, 40, -5320, 14350, 8050
70634, 652, 866, 23, 3500, -1820, -37450
70654, 726, 1016, 28, 10990, -10570, -78680
70674, 739, 1054, 42, 8400, 350, -77350
70694, 692, 958, 27, 7350, 8540, -30450
70714, 623, 809, 16, 17430, -840, 34300
70734, 549, 684, 31, 18760, 3290, 78540
70754, 504, 631, 53, 3010, 28490, 74340
70774, 513, 655, 46, -3710, 38360, 30870
70794, 548, 705, 33, 13230, 14770, -15540
70814, 582, 759, 27, 26460, -6510, -35490
70834, 616, 821, 41, 17920, -980, -32830
70854, 661, 887, 36, 7070, 11620, -21980
70874, 694, 935, 26, 11550, 8890, -9240
70894, 684, 916, 34, 15890, 5320, 2170
70914, 655, 871, 37, 10080, 13790, 8260
70934, 616, 826, 33, 12110, 14910, 1330
70954, 574, 762, 31, 20650, 7840, -6650
70974, 526, 685, 37, 17920, 10780, 6090
70994, 500, 630, 48, 6860, 20790, 35770
71014, 526, 651, 42, 1260, 21490, 51800
71034, 589, 747, 34, 7420, 7280, 30520
71054, 677, 906, 35, 12320, -4480, -57470
71074, 743, 1037, 33, 9520, -560, -76930
71094, 742, 1052, 27, 10710, -210, -58660
71114, 656, 913, 30, 7560, 6160, 2800
71134, 548, 726, 44, -1890, 17430, 75320
71154, 479, 591, 47, -3710, 13930, 105070
71174, 461, 540, 37, 2940, -1610, 78540
71194, 479, 565, 33, 3850, -8610, 19460
71214, 533, 668, 41, -5740, -1540, -45710
71234, 627, 844, 45, -11760, 1400, -94500
71254, 750, 1067, 35, -3920, -9940, -104580
71274, 829, 1202, 19, 7350, -20580, -64890
71294, 743, 1052, 25, 6160, -13720, 10710
71314, 606, 803, 31, -1820, -140, 81830
71334, 501, 614, 36, -6370, 6370, 106470
71354, 445, 525, 41, -10850, 9380, 78540
71374, 440, 529, 46, -11340, 5740, 24920
71394, 482, 599, 50, -7490, -4410, -22050
71414, 565, 735, 45, -2940, -18200, -51590
71434, 687, 927, 29, 1540, -31500, -69160
71454, 786, 1097, 16, 4130, -34230, -70000
71474, 782, 1113, 24, -1890, -19110, -44590
71494, 677, 953, 38, -13580, 280, 9240
71514, 577, 751, 36, -11830, 700, 70700
71534, 533, 653, 29, -1260, -9520, 89670
71554, 517, 637, 32, -1050, -7630, 55790
71574, 535, 682, 43, -6790, 1120, 4970
71594, 576, 753, 42, -8050, 1960, -29680
71614, 622, 830, 36, -5180, -5670, -43330
71634, 648, 874, 32, -3080, -10080, -38640
71654, 641, 870, 36, -2310, -6860, -14210
71674, 619, 829, 38, -910, -4200, 20020
71694, 606, 780, 29, 2310, -7490, 45290
71714, 604, 761, 24, 3780, -6860, 44100
71734, 611, 795, 37, -1820, 5670, 10150
71754, 628, 853, 43, -6160, 16800, -32550
71774, 646, 880, 38, 1890, 10570, -42000
71794, 653, 875, 32, 14000, -3220, -13930
71814, 639, 841, 27, 17850, -6160, 18690
71834, 609, 800, 29, 14490, 3430, 31640
71854, 573, 747, 37, 8470, 15540, 26670
71874, 544, 705, 43, 3570, 21700, 16520
71894, 535, 689, 40, 6370, 15680, 4270
71914, 541, 699, 33, 13580, 4480, -8190
71934, 562, 733, 34, 14980, 770, -11060
71954, 592, 775, 39, 8050, 6720, -140
71974, 647, 844, 36, 2520, 10710, 9380
71994, 696, 928, 32, 4760, 8120, -1890
72014, 723, 996, 38, 9240, 6720, -29540
72034, 703, 981, 33, 14420, 5250, -46410
72054, 639, 873, 28, 21000, -70, -25900
72074, 557, 728, 27, 19110, 3430, 24920
72094, 475, 598, 39, 4410, 20370, 67410
72114, 424, 512, 52, -11550, 35560, 80990
72134, 421, 497, 58, -14700, 30800, 65520
72154, 485, 585, 47, -3150, 5040, 22610
72174, 608, 777, 28, 12250, -24780, -39200
72194, 799, 1119, 15, 17220, -35840, -97020
72214, 927, 1385, 29, 8260, -20510, -124740
72234, 907, 1368, 27, -910, 700, -98420
72254, 747, 1058, 17, 10920, -3570, -15750
72274, 586, 758, 23, 24290, -9660, 83370
72294, 468, 569, 40, 15120, 7350, 125020
72314, 407, 479, 45, -980, 25970, 100100
72334, 370, 435, 53, -5810, 25480, 54040
72354, 363, 430, 58, -6930, 15820, 16310
72374, 390, 472, 58, -8540, 420, -11060
72394, 451, 556, 55, -10430, -17710, -29680
72414, 569, 719, 37, -9870, -35840, -40880
72434, 768, 1045, 26, -7630, -48160, -54180
72454, 948, 1387, 30, -10920, -42140, -73430
72474, 995, 1505, 15, -13580, -29050, -89880
72494, 823, 1208, 9, -1470, -32900, -73150
72514, 633, 863, 26, 3500, -27300, 13650
72534, 500, 630, 45, -9800, -210, 106540
72554, 431, 517, 47, -21560, 17570, 131390
72574, 395, 457, 48, -19670, 12740, 102130
72594, 380, 440, 52, -15610, 2310, 56770
72614, 396, 472, 54, -16310, -6440, 9800
72634, 454, 566, 54, -17080, -18410, -34230
72654, 587, 768, 36, -13370, -34930, -66080
72674, 759, 1051, 20, -6440, -50610, -80990
72694, 902, 1308, 33, -8680, -46340, -77490
72714, 921, 1356, 27, -18760, -23800, -55160
72734, 777, 1107, 10, -10010, -21560, -28980
72754, 606, 814, 20, 7350, -30100, 10220
72774, 475, 603, 42, -980, -8050, 68600
72794, 406, 492, 54, -23450, 25480, 105420
72814, 391, 453, 55, -30170, 32480, 105420
72834, 423, 485, 50, -19670, 14700, 78610
72854, 492, 591, 47, -6790, -7210, 31080
72874, 618, 813, 39, 6160, -29260, -100590
72894, 753, 1067, 20, 13160, -31430, -138950
72914, 817, 1211, 24, 6370, -13790, -108920
72934, 752, 1109, 42, -11270, 14770, -1120
72954, 655, 888, 42, -7910, 17990, 112140
72974, 596, 732, 28, 11830, 3500, 132930
72994, 555, 679, 29, 18130, 5530, 61390
73014, 533, 681, 39, 12880, 20370, -24430
73034, 520, 694, 46, 9170, 28490, -61460
73054, 523, 702, 46, 8750, 24990, -44800
73074, 529, 701, 44, 8610, 18620, 420
73094, 551, 712, 45, 10010, 14560, 41440
73114, 612, 781, 43, 14840, 9940, 46060
73134, 686, 892, 33, 21070, 5180, 7210
73154, 745, 1014, 23, 25760, 5040, -53060
73174, 733, 1042, 34, 18200, 22190, -88690
73194, 659, 954, 48, 8190, 41720, -57190
73214, 580, 806, 48, 13720, 37870, 31710
73234, 519, 660, 39, 22190, 24010, 111370
73254, 480, 567, 38, 20720, 21210, 124670
73274, 470, 544, 42, 15400, 26600, 70140
73294, 496, 612, 49, 14280, 28000, -17220
73314, 556, 738, 51, 16380, 22050, -89740
73334, 664, 930, 47, 19600, 11900, -112140
73354, 767, 1096, 36, 25060, 2100, -80710
73374, 814, 1159, 29, 30100, -490, -16940
73394, 751, 1038, 35, 27370, 7980, 41230
73414, 645, 853, 39, 20720, 18690, 62230
73434, 561, 722, 42, 20650, 20930, 42000
73454, 509, 663, 47, 21490, 19600, 7140
73474, 488, 643, 49, 21000, 15400, -9170
73494, 489, 636, 53, 19950, 6860, 5460
73514, 520, 660, 49, 17920, -4410, 25900
73534, 580, 735, 39, 16030, -15260, 18270
73554, 642, 844, 35, 13160, -17570, -17570
73574, 686, 949, 47, 6230, -9660, -55370
73594, 684, 970, 51, -1470, -3290, -65940
73614, 645, 897, 39, 840, -11970, -31010
73634, 587, 778, 35, 4620, -20300, 31850
73654, 529, 677, 44, -6300, -11060, 75600
73674, 509, 632, 48, -18620, -1330, 74060
73694, 527, 654, 43, -17430, -8120, 36120
73714, 566, 726, 42, -14980, -16730, -17780
73734, 611, 823, 47, -21000, -14700, -63280
73754, 652, 910, 52, -25410, -12040, -73850
73774, 690, 965, 42, -20160, -19530, -42700
73794, 689, 933, 32, -13510, -28630, 9240
73814, 641, 837, 33, -16590, -23590, 51030
73834, 592, 765, 46, -25200, -8610, 53620
73854, 571, 751, 47, -27300, -1120, 18480
73874, 587, 783, 40, -17710, -10080, -22610
73894, 607, 816, 39, -7420, -21000, -35140
73914, 626, 840, 43, -7700, -20090, -14350
73934, 644, 859, 41, -10640, -15330, 12530
73954, 653, 862, 36, -6370, -16450, 22400
73974, 625, 830, 35, -2800, -14840, 12040
73994, 576, 763, 44, -6720, -5110, -2100
74014, 526, 701, 43, -8260, 140, -1400
74034, 497, 645, 40, -4690, -3780, 12530
74054, 483, 612, 41, -5390, -5460, 31220
74074, 493, 612, 43, -11200, -1400, 45010
74094, 532, 661, 44, -16240, 2800, 40040
74114, 602, 778, 41, -16870, 3010, 8330
74134, 688, 932, 39, -13580, 1890, -36680
74154, 770, 1093, 38, -7280, 1470, -68390
74174, 819, 1182, 31, 1260, 980, -67200
74194, 773, 1090, 21, 11270, -280, -25690
74214, 661, 891, 31, 12670, 9590, 40950
74234, 563, 721, 48, 1330, 33320, 87010
74254, 507, 637, 50, -700, 42700, 77840
74274, 496, 628, 43, 15750, 26810, 31430
74294, 503, 643, 41, 31220, 9100, -7980
74314, 531, 689, 45, 32270, 5880, -19950
74334, 591, 773, 45, 27020, 8330, -16100
74354, 672, 897, 35, 27510, 5180, -14210
74374, 726, 998, 35, 33040, 560, -21980
74394, 711, 994, 49, 32690, 6370, -28840
74414, 658, 906, 43, 29680, 13790, -21490
74434, 595, 791, 32, 37730, 5530, 910
74454, 533, 691, 35, 43190, -140, 31570
74474, 485, 615, 52, 30590, 14140, 54250
74494, 480, 597, 59, 15120, 28630, 59640
74514, 525, 655, 46, 15470, 20090, 42560
74534, 589, 762, 35, 27090, -4270, 140
74554, 647, 878, 38, 30310, -16450, -47670
74574, 692, 969, 48, 19110, -6300, -70980
74594, 714, 1003, 41, 8470, 4690, -59430
74614, 682, 935, 34, 8330, 1890, -20160
74634, 612, 807, 44, 7490, 630, 30100
74654, 553, 712, 50, -2520, 11760, 60830
74674, 534, 681, 43, -5880, 13300, 49000
74694, 538, 690, 39, 910, -5180, -16660
74714, 559, 731, 43, -12250, 4830, -27090
74734, 592, 790, 50, -21910, 10430, -26250
74754, 639, 863, 46, -17640, 630, -21070
74774, 678, 917, 40, -10990, -9520, -13510
74794, 680, 924, 43, -11830, -9100, -7420
74814, 656, 888, 38, -11690, -8820, -5390
74834, 615, 823, 33, -11410, -7770, 0
74854, 563, 745, 41, -20720, 3570, 14350
74874, 524, 687, 53, -29610, 11760, 28910
74894, 522, 671, 52, -23310, -420, 29330
74914, 557, 710, 41, -10290, -20440, 11270
74934, 610, 796, 37, -7910, -25480, -16870
74954, 652, 879, 41, -13650, -17430, -40950
74974, 683, 942, 41, -14980, -12880, -48370
74994, 685, 950, 39, -11480, -14490, -30870
75014, 640, 874, 39, -9730, -13930, 8680
75034, 588, 770, 42, -9240, -11550, 46830
75054, 550, 700, 40, -7140, -12180, 54740
75074, 535, 676, 34, -5530, -12530, 32410
75094, 525, 670, 39, -9940, -5530, 3920
75114, 528, 688, 48, -17430, 3500, -14140
75134, 558, 737, 50, -16450, 140, -20580
75154, 622, 817, 38, -5530, -14560, -17710
75174, 682, 917, 30, 3360, -23170, -9940
75194, 721, 975, 35, 1330, -14350, -3080
75214, 729, 1002, 37, -2100, -1890, -4130
75234, 703, 965, 34, 1750, 2170, -9030
75254, 640, 874, 40, 4270, 7630, 2870
75274, 585, 782, 46, 5740, 12390, 27790
75294, 551, 713, 40, 13860, 6160, 44730
75314, 533, 674, 35, 21210, -910, 46550
75334, 527, 665, 40, 19110, 2800, 32200
75354, 547, 704, 47, 14210, 9450, 3150
75374, 591, 783, 44, 17150, 6090, -28910
75394, 640, 869, 38, 23590, -1610, -43400
75414, 660, 906, 42, 24010, -1890, -30450
75434, 658, 891, 42, 22260, 1750, -350
75454, 630, 840, 38, 24640, 1120, 26040
75474, 593, 776, 38, 25340, 2240, 34510
75494, 554, 720, 45, 20230, 9660, 27650
75514, 534, 694, 50, 16590, 13440, 12600
75534, 541, 706, 45, 19390, 6440, -1680
75554, 571, 747, 41, 23100, -3360, -6930
75574, 610, 806, 38, 21350, -6230, -5950
75594, 644, 860, 40, 14350, -910, -6090
75614, 669, 904, 45, 7630, 6510, -9800
75634, 668, 913, 46, 6090, 8470, -14560
75654, 649, 881, 41, 9730, 3500, -12880
75674, 611, 817, 35, 13720, -2030, 1330
75694, 570, 749, 40, 9800, 1400, 22190
75714, 551, 709, 47, -420, 10640, 35420
75734, 554, 712, 44, -5390, 12390, 29750
75754, 576, 749, 42, -3710, 6020, 6090
75774, 597, 794, 45, -5110, 3500, -20790
75794, 618, 833, 49, -10290, 5810, -33600
75814, 642, 870, 38, -8820, 420, -30450
75834, 642, 864, 35, -4410, -7700, -14840
75854, 603, 802, 44, -11270, -770, 9800
75874, 572, 747, 50, -22610, 11830, 27370
75894, 564, 729, 43, -22330, 9590, 23940
75914, 570, 743, 36, -13160, -4060, 2170
75934, 576, 762, 40, -11200, -8260, -18690
75954, 592, 788, 47, -19600, 420, -22610
75974, 618, 824, 43, -24220, 4130, -15400
75994, 643, 856, 35, -19530, -2940, -8750
76014, 641, 859, 41, -16940, -4620, -3430
76034, 634, 849, 47, -20580, 2800, 980
76054, 625, 835, 37, -16940, 1050, -210
76074, 606, 803, 36, -7560, -7490, -2520
76094, 584, 772, 45, -8610, -2660, 1470
76114, 578, 763, 50, -15540, 9030, 8540
76134, 596, 782, 40, -11620, 6440, 12250
76154, 613, 805, 36, -70, -6090, 8890
76174, 622, 825, 43, 3150, -7700, 1120
76194, 630, 847, 43, 1330, -1190, -8750
76214, 630, 850, 37, 6300, -2520, -15890
76234, 610, 818, 40, 11970, -5810, -8050
76254, 587, 771, 45, 10360, -1050, 14770
76274, 580, 757, 43, 10220, 1890, 30870
76294, 595, 775, 35, 18410, -5530, 24500
76314, 612, 808, 38, 24640, -10500, 6650
76334, 625, 835, 42, 21630, -4480, -8050
76354, 634, 856, 42, 18130, 1750, -14910
76374, 630, 849, 42, 20790, 420, -11410
76394, 605, 805, 43, 23870, -1470, 3920
76414, 583, 762, 45, 22680, 910, 24990
76434, 574, 743, 39, 23520, -70, 35140
76454, 570, 739, 35, 26950, -4620, 25130
76474, 566, 745, 45, 24570, -1820, 5950
76494, 576, 768, 48, 15610, 8400, -5180
76514, 607, 805, 44, 11830, -560, 1190
76534, 640, 848, 35, 23240, -8890, 5390
76554, 648, 862, 39, 18410, -2240, 7070
76574, 635, 853, 45, 11480, 7560, 5600
76594, 618, 825, 43, 11970, 7070, 4620
76614, 597, 790, 40, 13370, 4900, 9730
76634, 579, 763, 44, 10990, 6370, 16030
76654, 581, 763, 44, 11620, 3570, 15960
76674, 600, 785, 36, 15400, -3570, 8190
76694, 616, 809, 36, 11130, -420, -3010
76714, 627, 836, 46, 1330, 10360, -14210
76734, 639, 866, 47, 1890, 9170, -23380
76754, 637, 865, 38, 9520, -1330, -19810
76774, 603, 807, 41, 6510, 210, 3920
76794, 571, 748, 46, -1260, 6650, 28350
76814, 561, 722, 41, -1260, 3360, 31080
76834, 576, 741, 36, 140, -1400, 13160
76854, 596, 780, 42, -6510, 3990, -10850
76874, 628, 840, 47, -12880, 9170, -31570
76894, 658, 895, 42, -8680, 2380, -42700
76914, 663, 911, 36, -3920, -4270, -34090
76934, 634, 864, 42, -7350, -840, -5040
76954, 597, 787, 41, -10920, 2170, 25620
76974, 563, 727, 38, -10850, 140, 34930
76994, 540, 689, 40, -14980, 2800, 21280
77014, 541, 699, 50, -20580, 6580, -3990
77034, 575, 755, 46, -18130, -490, -29820
77054, 624, 836, 32, -10990, -13440, -45080
77074, 651, 882, 38, -12180, -14420, -38920
77094, 657, 896, 45, -21070, -3360, -14910
77114, 655, 885, 43, -20510, -3500, 7350
77134, 643, 851, 33, -12110, -12530, 17010
77154, 608, 800, 36, -11480, -10990, 14560
77174, 571, 753, 48, -18410, 140, 6230
77194, 557, 736, 47, -18270, 630, -630
77214, 567, 748, 40, -11200, -9310, 420
77234, 591, 775, 40, -7630, -15470, 7210
77254, 613, 809, 41, -10220, -12180, 8890
77274, 631, 840, 42, -11270, -8750, 910
77294, 633, 852, 40, -8330, -9450, -9100
77314, 617, 832, 40, -5600, -10150, -9730
77334, 598, 797, 42, -4480, -8680, 4410
77354, 583, 767, 40, -1680, -9240, 21840
77374, 575, 749, 37, 1330, -10430, 30240
77394, 575, 745, 40, 1610, -8190, 26670
77414, 590, 767, 43, 840, -4130, 11830
77434, 612, 814, 42, 3010, -3430, -8820
77454, 632, 853, 38, 8260, -6160, -21350
77474, 630, 851, 38, 11480, -6020, -14840
77494, 611, 813, 44, 9800, 140, 8260
77514, 592, 776, 40, 9310, 4620, 31150
77534, 580, 750, 38, 13720, 3360, 36330
77554, 580, 752, 41, 17150, 3430, 23380
77574, 593, 781, 41, 18130, 6230, 2170
77594, 617, 824, 38, 20790, 6650, -14070
77614, 644, 864, 37, 23310, 6860, -15120
77634, 650, 877, 40, 22400, 11340, -2030
77654, 643, 861, 40, 22400, 15820, 12740
77674, 612, 814, 41, 25760, 16520, 18970
77694, 582, 768, 42, 27300, 18480, 19740
77714, 571, 744, 42, 28280, 19460, 17710
77734, 573, 749, 39, 30450, 17920, 12040
77754, 585, 769, 43, 29750, 18830, 6650
77774, 605, 800, 45, 24710, 24430, 3500
77794, 627, 836, 44, 22750, 25550, -2100
77814, 644, 863, 42, 25900, 20860, -9450
77834, 645, 873, 39, 28980, 16870, -13300
77854, 635, 857, 41, 28210, 17290, -8540
77874, 621, 826, 43, 24500, 20510, 5530
77894, 604, 800, 45, 20650, 22610, 16380
77914, 590, 781, 44, 18830, 21630, 14070
77934, 577, 766, 51, 16450, 20790, 4830
77954, 575, 764, 48, 13720, 18340, -3640
77974, 580, 767, 42, 14770, 9310, -10220
77994, 580, 767, 42, 14420, 2030, -11130
78014, 579, 769, 51, 5880, 5110, -6300
78034, 582, 771, 50, -3570, 8680, -2100
78054, 600, 790, 46, -4830, 1680, -2030
78074, 618, 821, 44, -2940, -8960, -8190
78094, 641, 860, 42, -4900, -14000, -19670
78114, 649, 879, 40, -7350, -16520, -28840
78134, 629, 852, 45, -11830, -15890, -25200
78154, 603, 806, 45, -19950, -11410, -9450
78174, 582, 768, 46, -23520, -12180, 7140
78194, 575, 752, 41, -21770, -19320, 15190
78214, 577, 755, 40, -20370, -26670, 9800
78234, 579, 759, 40, -22750, -29540, -3570
78254, 586, 777, 44, -29190, -26530, -15750
78274, 600, 809, 47, -35280, -23450, -23030
78294, 624, 842, 43, -35280, -26880, -21280
78314, 634, 848, 38, -29540, -36120, -9240
78334, 631, 835, 36, -26530, -40950, 7560
78354, 620, 818, 37, -29820, -32760, 9100
78374, 611, 811, 41, -31150, -26460, 700
78394, 605, 807, 43, -29400, -24710, -560
78414, 604, 801, 39, -22750, -28770, 6300
78434, 604, 797, 39, -16310, -31640, 15820
78454, 608, 799, 37, -13790, -28770, 19180
78474, 611, 802, 36, -11340, -24640, 12740
78494, 604, 796, 34, -10010, -17990, 4550
78514, 588, 778, 42, -11340, -8610, 3710
78534, 577, 765, 43, -7770, -6230, 9590
78554, 583, 770, 39, 2380, -12320, 17220
78574, 597, 778, 31, 8680, -13230, 22610
78594, 605, 789, 35, 6860, -3220, 20930
78614, 606, 799, 39, 4690, 8400, 11480
78634, 604, 803, 40, 7490, 14210, 1820
78654, 601, 801, 42, 13300, 15470, 2100
78674, 597, 792, 39, 20580, 14350, 13300
78694, 601, 789, 35, 27650, 13650, 23590
78714, 614, 803, 33, 30030, 19250, 23590
78734, 624, 821, 36, 27230, 31710, 14770
78754, 632, 844, 42, 27020, 41090, 140
78774, 632, 853, 41, 33250, 41440, -11060
78794, 632, 849, 40, 42070, 37240, -8750
78814, 626, 837, 36, 49210, 33880, 4550
78834, 609, 804, 35, 48790, 38570, 19390
78854, 586, 766, 44, 41020, 50680, 25130
78874, 571, 752, 49, 36260, 57260, 14630
78894, 584, 774, 46, 42070, 49070, -8120
78914, 607, 809, 41, 50400, 36050, -25200
78934, 615, 826, 40, 49420, 32550, -22890
78954, 611, 814, 45, 39620, 38640, -6230
78974, 599, 795, 48, 30730, 42770, 8190
78994, 588, 781, 50, 27510, 38920, 9240
79014, 586, 777, 50, 27930, 29260, -700
79034, 589, 781, 50, 28630, 17780, -12530
79054, 599, 798, 42, 26880, 8330, -19740
79074, 606, 810, 45, 19670, 5460, -19810
79094, 607, 814, 51, 6860, 9730, -12460
79114, 604, 811, 56, -3570, 10500, -3570
79134, 606, 810, 52, -4270, -1120, -910
79154, 604, 800, 45, -840, -17710, -5600
79174, 594, 791, 43, -3570, -25690, -11760
79194, 587, 784, 46, -13020, -24850, -13020
79214, 586, 780, 45, -23030, -23240, -7840
79234, 585, 778, 48, -30590, -24500, 140
79254, 594, 790, 52, -34580, -29330, 4060
79274, 626, 834, 42, -31220, -41790, -4060
79294, 650, 870, 34, -24850, -55650, -19530
79314, 642, 874, 37, -28770, -54670, -25900
79334, 612, 830, 46, -42840, -39690, -14210
79354, 580, 777, 47, -49840, -32690, 7630
79374, 564, 738, 41, -43890, -41370, 24570
79394, 556, 719, 37, -37450, -50120, 29120
79414, 560, 722, 34, -36540, -51240, 19950
79434, 577, 748, 35, -38430, -47250, 1750
79454, 601, 797, 41, -42420, -39060, -13930
79474, 631, 852, 46, -45150, -31150, -17780
79494, 670, 908, 40, -39060, -32270, -10430
79514, 691, 934, 32, -24080, -41930, 350
79534, 687, 920, 28, -12880, -44800, 9940
79554, 649, 866, 31, -12600, -32970, 16100
79574, 604, 800, 38, -16800, -14770, 20160
79594, 566, 745, 43, -17290, -1890, 23030
79614, 547, 713, 44, -10290, -350, 23870
79634, 554, 713, 40, 2520, -7560, 23660
79654, 584, 751, 31, 14490, -14420, 18620
79674, 617, 809, 28, 20650, -13580, 3780
79694, 636, 848, 36, 18690, -980, -12390
79714, 633, 856, 46, 12390, 17920, -16240
79734, 625, 842, 42, 13860, 26040, -8610
79754, 611, 811, 37, 28350, 17010, 5740
79774, 589, 768, 31, 42070, 8750, 22960
79794, 562, 726, 34, 42770, 15470, 32480
79814, 547, 706, 41, 35000, 31570, 30520
79834, 556, 725, 45, 29820, 42980, 19460
79854, 589, 777, 43, 32200, 42980, 1610
79874, 628, 840, 40, 40040, 35350, -13930
79894, 654, 881, 35, 47810, 28280, -17500
79914, 647, 871, 36, 49000, 29820, -8330
79934, 629, 839, 41, 42280, 40880, 7910
79954, 604, 803, 45, 35980, 50890, 19320
79974, 592, 786, 47, 35490, 52780, 20720
79994, 598, 792, 45, 39340, 47250, 14280
80014, 614, 812, 41, 44030, 38920, 5390
80034, 631, 841, 38, 45500, 33320, -2730
80054, 634, 855, 44, 41720, 33950, -11270
80074, 624, 846, 51, 32130, 41650, -13370
80094, 611, 823, 49, 25340, 44450, -7490
80114, 591, 787, 47, 27440, 34300, 350
80134, 577, 759, 45, 30240, 21770, 8540
80154, 572, 751, 44, 26740, 16100, 10290
80174, 585, 769, 44, 13300, 11620, -14140
80194, 599, 799, 46, 4550, 11270, -25690
80214, 602, 813, 53, -4480, 10220, -27090
80234, 605, 819, 51, -5880, -280, -20090
80254, 607, 813, 45, -4270, -14420, -7840
80274, 603, 801, 40, -9590, -19600, 2800
80294, 597, 788, 44, -21560, -15540, 4760
80314, 595, 785, 47, -31080, -13580, -4900
80334, 597, 797, 46, -34930, -18200, -19810
80354, 597, 806, 46, -37520, -24080, -24430
80374, 601, 812, 50, -39270, -30450, -14210
80394, 611, 817, 45, -37450, -40600, 210
80414, 625, 824, 32, -35980, -47880, 6370
80434, 617, 815, 40, -43610, -41160, 3570
80454, 606, 810, 49, -53060, -31010, -5320
80474, 604, 813, 45, -49350, -36540, -14140
80494, 605, 810, 37, -39690, -48580, -11200
80514, 598, 795, 39, -38780, -49140, 4760
80534, 592, 780, 39, -41510, -43960, 19670
80554, 604, 788, 34, -37730, -44520, 18060
80574, 611, 802, 35, -35140, -41860, 4060
80594, 611, 812, 41, -37030, -32550, -8400
80614, 618, 825, 41, -32410, -30590, -12110
80634, 624, 832, 34, -20230, -37730, -5250
80654, 621, 823, 33, -12390, -38710, 9940
80674, 607, 797, 35, -13020, -27650, 25410
80694, 594, 775, 36, -13230, -16030, 29120
80714, 585, 762, 38, -8260, -11270, 18830
80734, 581, 761, 35, -420, -10500, 3850
80754, 578, 763, 39, 6580, -8960, -3150
80774, 583, 768, 35, 12320, -6930, 2380
80794, 599, 785, 33, 17570, -4970, 13020
80814, 613, 800, 33, 20090, 980, 20020
80834, 618, 814, 37, 20720, 10710, 16030
80854, 621, 824, 41, 24150, 17500, 2940
80874, 622, 833, 38, 31780, 18270, -5740
80894, 615, 821, 34, 39480, 17570, -840
80914, 599, 790, 36, 41860, 22470, 14840
80934, 583, 764, 39, 39830, 31990, 28560
80954, 578, 754, 40, 39480, 38430, 29820
80974, 588, 772, 42, 43190, 38360, 18480
80994, 613, 813, 40, 48650, 35280, 0
81014, 643, 863, 36, 53130, 33110, -16520
81034, 659, 895, 35, 54390, 35070, -20930
81054, 653, 891, 38, 50050, 43750, -8470
81074, 634, 854, 44, 44240, 52640, 13020
81094, 604, 803, 46, 44380, 52500, 27720
81114, 590, 771, 43, 48510, 45850, 26250
81134, 579, 762, 42, 51030, 39270, 11410
81154, 581, 768, 40, 49630, 35840, -5740
81174, 588, 784, 42, 44310, 35700, -14420
81194, 591, 792, 51, 34720, 39130, -10780
81214, 598, 801, 52, 25760, 39900, -910
81234, 619, 825, 48, 25760, 28700, 2520
81254, 632, 844, 40, 30170, 12530, -3990
81274, 628, 843, 41, 26880, 6300, -13790
81294, 606, 818, 50, 14070, 11760, -17010
81314, 588, 790, 51, 2100, 15050, -10570
81334, 575, 765, 47, -1680, 6650, -1680
81354, 566, 744, 48, -3430, -5040, 5810
81374, 566, 738, 47, -8120, -13580, 6930
81394, 575, 751, 43, -13860, -20440, -2870
81414, 596, 791, 42, -20160, -25830, -19320
81434, 617, 835, 45, -28350, -27370, -32620
81454, 633, 860, 47, -37030, -27230, -34020
81474, 636, 864, 46, -41580, -31360, -22400
81494, 633, 847, 41, -40600, -41020, -6510
81514, 620, 822, 36, -40180, -47950, 3290
81534, 600, 795, 39, -44100, -47460, 2730
81554, 584, 778, 43, -51030, -41860, -2730
81574, 582, 774, 42, -55580, -39060, -8120
81594, 580, 772, 42, -54950, -42560, -8960
81614, 589, 777, 40, -52430, -47390, -3360
81634, 603, 795, 36, -49490, -51520, 1680
81654, 622, 822, 32, -45290, -55020, 140
81674, 631, 841, 37, -43190, -53200, -5040
81694, 627, 840, 40, -46200, -43260, -7140
81714, 620, 831, 39, -46340, -35980, -4760
81734, 611, 811, 34, -36680, -39830, 1330
81754, 598, 785, 32, -25340, -44730, 10640
81774, 582, 761, 34, -21280, -40110, 19880
81794, 583, 758, 35, -21560, -29680, 23240
81814, 597, 780, 35, -19390, -21980, 16240
81834, 615, 814, 38, -15190, -16450, 4760
81854, 631, 844, 36, -9380, -12530, -2450
81874, 635, 847, 31, 140, -12320, -3710
81894, 620, 821, 33, 8120, -9800, 4970
81914, 599, 791, 33, 11340, -1470, 19110
81934, 576, 750, 34, 13860, 7630, 27930
81954, 563, 729, 40, 16520, 16100, 30380
81974, 570, 741, 39, 20860, 20790, 23870
81994, 595, 783, 33, 39410, 15400, -3710
82014, 625, 831, 31, 42840, 19600, -8260
82034, 631, 845, 35, 38430, 32970, 910
82054, 624, 835, 41, 36610, 42560, 14420
82074, 612, 812, 38, 43750, 40320, 18830
82094, 594, 786, 38, 50750, 36750, 18550
82114, 585, 768, 43, 52010, 38290, 17570
82134, 609, 800, 38, 55230, 35350, 6230
82154, 653, 872, 26, 58800, 32410, -12320
82174, 684, 930, 33, 48650, 47600, -17290
82194, 684, 947, 55, 33250, 68390, -5110
82214, 683, 940, 50, 40180, 60130, 6580
82234, 649, 873, 29, 58800, 36960, 14000
82254, 579, 772, 38, 52780, 42000, 27650
82274, 517, 680, 52, 32900, 60200, 39900
82294, 498, 637, 51, 28350, 55510, 37590
82314, 507, 641, 41, 31500, 39340, 22890
82334, 537, 689, 47, 24150, 36190, 2450
82354, 586, 778, 58, 15120, 35420, -21910
82374, 660, 901, 46, 21140, 17990, -45290
82394, 716, 992, 29, 30100, -1540, -53900
82414, 689, 959, 42, 16030, 7980, -31850
82434, 618, 850, 54, -3080, 23450, 10430
82454, 561, 741, 49, -2100, 12950, 43190
82474, 520, 660, 43, 2520, -4410, 50190
82494, 497, 627, 50, -4760, -8120, 33600
82514, 507, 645, 55, -13090, -10710, 490
82534, 554, 725, 46, -12250, -25340, -39480
82554, 617, 829, 40, -12810, -37940, -66430
82574, 669, 925, 46, -22540, -36890, -66290
82594, 703, 982, 48, -30240, -34440, -43470
82614, 712, 981, 40, -26950, -43330, -11970
82634, 670, 906, 31, -22750, -52360, 12250
82654, 603, 797, 37, -30170, -45080, 22610
82674, 540, 707, 46, -41510, -32690, 18690
82694, 498, 649, 51, -44310, -33600, 7910
82714, 491, 632, 46, -40110, -46340, 1680
82734, 514, 656, 41, -35420, -60620, -1540
82754, 560, 720, 40, -35630, -67410, -10150
82774, 623, 819, 37, -39270, -66290, -26460
82794, 689, 939, 36, -41230, -63280, -46340
82814, 727, 1016, 38, -42000, -58730, -56560
82834, 713, 1003, 37, -42140, -53410, -42770
82854, 659, 903, 37, -36470, -53760, -4550
82874, 607, 796, 28, -28350, -56070, 36400
82894, 566, 725, 27, -25830, -51170, 48370
82914, 539, 688, 35, -30660, -36750, 33600
82934, 530, 686, 45, -36960, -21070, 12390
82954, 550, 720, 47, -36680, -16170, -4480
82974, 590, 782, 41, -25690, -26320, -14560
82994, 644, 859, 27, -8680, -41650, -21700
83014, 663, 894, 27, 280, -42840, -22960
83034, 644, 868, 36, -6160, -23240, -7560
83054, 613, 813, 40, -13510, -3500, 16100
83074, 585, 761, 35, -8820, 1190, 29750
83094, 567, 736, 38, 770, 980, 27300
83114, 561, 731, 41, 7770, 3500, 16660
83134, 583, 758, 35, 14840, 3990, 9030
83154, 623, 817, 26, 21070, 4410, 5040
83174, 648, 861, 34, 19180, 15820, 1890
83194, 651, 885, 43, 12880, 35140, -770
83214, 635, 864, 44, 14560, 45360, 2170
83234, 611, 818, 36, 27090, 39480, 17640
83254, 587, 762, 30, 39620, 31570, 39900
83274, 568, 729, 32, 42070, 35980, 49980
83294, 561, 728, 37, 36680, 49980, 37800
83314, 570, 753, 42, 31990, 62090, 16450
83334, 596, 795, 46, 32060, 65870, 2590
83354, 630, 846, 42, 38430, 59710, -1540
83374, 659, 890, 32, 48650, 49630, 140
83394, 658, 889, 35, 53760, 47530, 7420
83414, 642, 861, 44, 46760, 59710, 21490
83434, 630, 838, 45, 38850, 70770, 31150
83454, 617, 825, 41, 42140, 67480, 24640
83474, 601, 812, 45, 47950, 60410, 9870
83494, 592, 794, 46, 48370, 57540, 4410
83514, 591, 785, 41, 49280, 50820, 11690
83534, 596, 787, 43, 50610, 41650, 18900
83554, 598, 795, 48, 45500, 39900, 14630
83574, 598, 805, 49, 38290, 40670, 0
83594, 589, 793, 47, 37170, 31920, -12250
83614, 568, 755, 50, 35490, 21000, -8540
83634, 557, 736, 52, 27860, 15610, 5460
83654, 561, 735, 44, 23170, 6580, 11550
83674, 565, 740, 44, 21980, -6300, 5950
83694, 570, 756, 52, 13020, -9730, -4270
83714, 586, 784, 58, -3010, -4970, -15050
83734, 611, 828, 43, -9380, -12110, -26600
83754, 615, 830, 40, -4620, -31920, -32830
83774, 594, 798, 53, -10360, -38010, -20930
83794, 596, 787, 53, -27090, -30380, 2800
83814, 617, 812, 38, -29820, -38220, 9800
83834, 625, 838, 38, -28840, -54110, -24430
83854, 612, 829, 51, -43050, -42840, -28560
83874, 609, 822, 50, -43050, -48930, -20580
83894, 626, 840, 35, -32410, -66430, -11480
83914, 628, 840, 34, -31990, -68600, -3290
83934, 604, 805, 41, -41580, -56630, 4480
83954, 579, 760, 45, -46410, -50890, 6510
83974, 572, 747, 39, -42910, -55930, -2520
83994, 581, 766, 36, -38570, -59990, -16170
84014, 593, 791, 38, -39620, -55510, -19880
84034, 605, 807, 40, -41720, -49910, -10360
84054, 622, 823, 36, -39550, -49070, 2660
84074, 646, 850, 29, -35000, -47950, 3500
84094, 656, 877, 35, -34790, -38010, -6930
84114, 661, 894, 41, -36190, -25410, -10640
84134, 662, 894, 33, -29120, -24360, -4550
84154, 646, 860, 27, -20580, -24360, 6230
84174, 612, 809, 33, -22190, -9800, 19040
84194, 585, 771, 43, -24290, 5040, 27580
84214, 585, 764, 36, -15120, 4410, 25410
84234, 591, 768, 29, -3500, 140, 13580
84254, 585, 761, 34, -2800, 10570, 1330
84274, 576, 764, 42, -3150, 22750, -8190
84294, 579, 768, 37, 7070, 20580, -7840
84314, 578, 760, 34, 16170, 17220, 9450
84334, 587, 759, 37, 17080, 23520, 25760
84354, 610, 796, 38, 20440, 29050, 18270
84374, 632, 842, 34, 29120, 29540, -6510
84394, 636, 858, 37, 33880, 33460, -21630
84414, 616, 829, 42, 34930, 39550, -13790
84434, 598, 800, 37, 40320, 39900, 6090
84454, 581, 769, 35, 45640, 39620, 26390
84474, 568, 745, 45, 44450, 45570, 41720
84494, 575, 742, 48, 44170, 47810, 41300
84514, 615, 795, 34, 52780, 38710, 12530
84534, 650, 881, 29, 62580, 29610, -30240
84554, 649, 899, 43, 56910, 40110, -41860
84574, 623, 861, 55, 43260, 56980, -7770
84594, 609, 814, 44, 43750, 52360, 38080
84614, 604, 784, 35, 54250, 35910, 59290
84634, 593, 775, 42, 52500, 35980, 47810
84654, 597, 793, 51, 42210, 44940, 17570
84674, 612, 823, 43, 41720, 39130, -11410
84694, 623, 841, 36, 44380, 27790, -22050
84714, 599, 818, 49, 32620, 33880, -5670
84734, 583, 787, 57, 17220, 43750, 28140
84754, 597, 781, 45, 18760, 30450, 51170
84774, 615, 794, 36, 26740, 8890, 45080
84794, 339, 784, 178, 21770, 6230, 12250
84814, -110, 1297, -298, 4970, 6370, -32760
84834, 574, 886, -91, -14980, -90230, -129710
84854, 725, 1068, -55, -14490, -107450, -82600
84874, 661, 1002, 16, -40950, -27860, -26110
84894, 1108, 416, -166, -23590, 24080, 50540
84914, 368, 691, -236, 6510, 38290, 63770
84934, 373, 915, -61, 27580, -37100, -50120
84954, 415, 967, -81, 3010, -46760, -60550
84974, 426, 1041, -26, -30310, -25340, -70770
84994, 335, 1037, -40, -18270, -31360, -61670
85014, 329, 1013, -78, -18340, -40950, -28280
85034, 283, 1015, -120, -19460, -54670, -27790
85054, 239, 1125, -125, -19880, -69650, -59080
85074, 252, 1094, -132, -27370, -63770, -96460
85094, 310, 991, -109, -37100, -47530, -131040
85114, 335, 975, -41, -29960, -34930, -127470
85134, 263, 1044, -22, -22750, -24220, -98910
85154, 157, 1098, -75, -21420, -23800, -81760
85174, 154, 1102, -79, -24500, -34580, -57260
85194, 254, 967, -19, -31360, -45150, -47670
85214, 234, 1045, 24, -31990, -44380, -88760
85234, 66, 1099, 23, -24780, -39340, -109620
85254, -36, 1096, 4, -21840, -30940, -59010
85274, 70, 979, 62, -28490, -35770, -14070
85294, 172, 845, 111, -33740, -49420, -34510
85314, 74, 1001, 87, -30940, -57050, -64960
85334, 119, 952, -17, -20300, -72030, -61040
85354, 252, 845, 24, -13090, -81060, -47530
85374, 454, 678, 121, -11200, -73990, -55650
85394, 439, 760, 188, -10500, -49280, -72100
85414, 281, 890, 70, -700, -59080, -93240
85434, 413, 956, -61, 14910, -95690, -76160
85454, 585, 987, -86, 42420, -114170, -56000
85474, 574, 904, 12, 55580, -97860, -57680
85494, 483, 926, -13, 44240, -63630, -56560
85514, 463, 882, 22, 5880, -32130, -39970
85534, 583, 798, -16, -2380, -1330, 1610
85554, 678, 786, -129, 4550, -490, -350
85574, 880, 904, -222, 18130, 980, 5460
85594, 1166, 1147, -326, 43120, 32690, 39690
85614, 1453, 1321, -397, 68180, 74410, 67340
85634, 1770, 1581, -388, 73360, 124040, 73780
85654, 962, 849, -94, -49560, 155470, 79450
85674, 189, 596, 166, -199640, 37800, 35630
85694, 99, 429, 203, -314580, -75180, -65870
85714, -95, 263, 192, -314510, -264040, 76860
85734, -76, 157, 66, -192850, -578550, 290640
85754, 100, 203, -30, -34930, -818230, 377090
85774, 557, 671, -124, 82390, -889280, 300230
85794, 1997, 1997, -1154, 167930, -852950, 28350
85814, 1928, 1997, -404, -129150, -485170, -424270
85834, 419, 1025, 241, -461090, 47670, -80990
85854, 132, 290, 183, -99820, -202860, 405020
85874, 317, 233, -113, 266910, -576520, 537810
85894, 391, 167, -183, 386470, -557900, 464100
85914, 354, 104, -198, 290850, -219450, 305620
85934, 190, 51, -55, 145180, 164150, 70490
85954, 114, 189, 99, 79170, 404320, -180390
85974, 281, 614, 125, 184730, 370930, -366100
85994, 752, 1358, -10, 370650, 168420, -397180
86014, 1429, 1997, -282, 472850, 33320, -229320
86034, 1091, 1995, -126, 333060, 247520, 157150
86054, 591, 876, 41, 127680, 521010, 437570
86074, 389, 539, 54, 159460, 466620, 275520
86094, 339, 470, -28, 286860, 329910, 52150
86114, 264, 430, -13, 332710, 309190, -8330
86134, 225, 402, -4, 311920, 356300, 35560
86154, 169, 324, 21, 269360, 398790, 129220
86174, 126, 204, 62, 214410, 427070, 202160
86194, 116, 106, 111, 186900, 401590, 189560
86214, 182, 170, 105, 218190, 306390, 60270
86234, 317, 409, 18, 310870, 156940, -145880
86254, 536, 891, -48, 405860, 37310, -360710
86274, 1065, 1942, -115, 441140, 7980, -529900
86294, 1539, 1997, -199, 377580, 85610, -506310
86314, 1017, 1784, -97, 242690, 240730, -127050
86334, 437, 702, 254, 78260, 438060, 251230
86354, 425, 635, 129, 138110, 330400, 195300
86374, 501, 633, -13, 394730, -16310, 31150
86394, 541, 623, -51, 472710, -147210, -11620
86414, 643, 794, -43, 381920, -66360, -51590
86434, 709, 1130, 104, 240310, 91210, -139300
86454, 1141, 1972, 23, 180110, 166180, -216930
86474, 1267, 1997, 47, 240800, 81900, -176120
86494, 1027, 1593, -5, 269710, 20020, 57820
86514, 770, 1050, -25, 334740, -61180, 233170
86534, 618, 812, -11, 290640, -17640, 205870
86554, 478, 692, 109, 164010, 95760, 114170
86574, 448, 736, 206, 55860, 157080, 40320
86594, 624, 951, 100, 89110, 23590, 8610
86614, 815, 1164, -9, 198660, -199010, 15050
86634, 890, 1298, -30, 199500, -277410, 22470
86654, 703, 1091, 68, 61530, -181790, 25340
86674, 527, 829, 123, -84840, -66710, 69230
86694, 458, 678, 87, -101010, -108500, 118370
86714, 407, 583, 65, -69510, -223860, 120120
86734, 390, 550, 42, -76580, -295470, 85960
86754, 397, 566, 20, -107800, -331380, 37100
86774, 412, 599, 8, -152670, -339430, -9170
86794, 425, 649, 18, -211610, -318150, -26740
86814, 396, 663, 55, -282800, -277690, -7490
86834, 389, 663, 63, -338730, -264880, 36120
86854, 476, 745, 8, -330820, -331730, 67340
86874, 602, 913, -38, -279440, -431480, 50610
86894, 677, 1116, -13, -268100, -461440, -8470
86914, 671, 1213, 23, -310940, -417130, -46550
86934, 621, 1108, 6, -326060, -400050, 17850
86954, 587, 938, -22, -275240, -448560, 164010
86974, 594, 836, -26, -218890, -485380, 260120
86994, 656, 937, -22, -188720, -471240, 226940
87014, 693, 1094, 11, -172200, -431900, 98420
87034, 695, 1127, 49, -169610, -385980, 20580
87054, 781, 1148, 6, -140560, -378140, 68600
87074, 918, 1337, -59, -41300, -432950, 122570
87094, 964, 1460, -47, 53690, -462280, 68180
87114, 893, 1296, -31, 57400, -393400, 9100
87134, 784, 1082, -2, 29680, -291760, 49210
87154, 695, 969, 31, 23940, -206500, 80290
87174, 702, 1004, 20, 63560, -167160, 40880
87194, 829, 1126, -61, 154840, -188790, -1400
87214, 902, 1226, -87, 239470, -208530, -4900
87234, 826, 1204, -30, 225330, -113960, -12040
87254, 679, 1057, 44, 150010, 56210, -18130
87274, 625, 897, 26, 138950, 150780, 30660
87294, 613, 819, -34, 221900, 126840, 96530
87314, 572, 771, -54, 317800, 82880, 117530
87334, 506, 698, -51, 336560, 126560, 99750
87354, 421, 604, -20, 298690, 229950, 85260
87374, 367, 551, 5, 252490, 333760, 81550
87394, 355, 534, 9, 238280, 387310, 68950
87414, 363, 547, -9, 262570, 385140, 51730
87434, 365, 561, -12, 297570, 364560, 40530
87454, 360, 542, -6, 312130, 365540, 44380
87474, 350, 507, 14, 304080, 393120, 54950
87494, 378, 539, 19, 316960, 375200, -13440
87514, 437, 655, 1, 346430, 336210, -120190
87534, 518, 817, -15, 367430, 312760, -205170
87554, 603, 994, -9, 363720, 322210, -224070
87574, 655, 1103, 27, 339430, 350630, -163800
87594, 704, 1147, 39, 326620, 350840, -64330
87614, 709, 1109, 57, 339780, 313880, 6510
87634, 706, 1101, 56, 369670, 256550, -700
87654, 726, 1146, 40, 401870, 189210, -45570
87674, 757, 1173, 29, 400190, 150780, -39410
87694, 791, 1212, 40, 358540, 154630, -140
87714, 841, 1329, 75, 309890, 167230, 15750
87734, 891, 1446, 93, 289590, 145390, 26810
87754, 918, 1442, 71, 297080, 81550, 69650
87774, 879, 1324, 50, 296030, 24920, 118090
87794, 814, 1229, 61, 257390, 15540, 118510
87814, 762, 1179, 81, 197470, 23310, 96530
87834, 697, 1083, 117, 145040, 11200, 115150
87854, 700, 1046, 102, 124390, -47040, 137620
87874, 738, 1089, 69, 129220, -134330, 116550
87894, 746, 1113, 57, 103460, -181020, 78400
87914, 691, 1042, 66, 40810, -185010, 66570
87934, 604, 922, 87, -25410, -185710, 79590
87954, 533, 817, 84, -63280, -220290, 84980
87974, 486, 745, 66, -78680, -284200, 75180
87994, 459, 691, 35, -96530, -344400, 59150
88014, 440, 653, 17, -131110, -377510, 37730
88034, 412, 633, 19, -188930, -374010, 9240
88054, 377, 616, 30, -255080, -355390, -14000
88074, 340, 595, 37, -304920, -355530, -17640
88094, 328, 583, 19, -326550, -390320, -3990
88114, 352, 604, -9, -329840, -441490, 7420
88134, 392, 659, -27, -338940, -471730, 2940
88154, 428, 732, -15, -364280, -465990, -8260
88174, 459, 822, 5, -384440, -453460, -7630
88194, 505, 910, 2, -373450, -471660, 16590
88214, 575, 993, -16, -333410, -518070, 60410
88234, 666, 1091, -38, -283640, -561820, 94990
88254, 719, 1157, -43, -243670, -574770, 87990
88274, 699, 1136, -20, -226450, -549850, 55930
88294, 650, 1039, -7, -214270, -514780, 49490
88314, 646, 957, -21, -170450, -507360, 71330
88334, 700, 993, -35, -106540, -509740, 61600
88354, 788, 1147, -33, -59850, -485170, -5950
88374, 878, 1331, -30, -34090, -437990, -89530
88394, 939, 1415, -33, -14910, -387660, -128100
88414, 899, 1323, -20, 6930, -334460, -106120
88434, 843, 1194, -23, 42140, -282520, -74760
88454, 817, 1121, -39, 88900, -240100, -67690
88474, 789, 1087, -30, 117810, -181370, -85680
88494, 767, 1092, -12, 123830, -96460, -113260
88514, 761, 1110, 2, 139790, -22190, -124950
88534, 774, 1113, -25, 186340, 13510, -107520
88554, 744, 1059, -43, 244020, 33950, -69860
88574, 670, 948, -36, 271390, 88200, -31150
88594, 578, 832, -19, 274610, 165900, -3780
88614, 510, 753, -11, 279790, 233590, 9520
88634, 467, 698, -19, 305060, 268730, 17990
88654, 435, 662, -28, 337610, 286090, 35070
88674, 408, 627, -32, 355600, 312550, 63000
88694, 387, 595, -30, 359030, 349860, 91770
88714, 373, 574, -31, 356650, 386750, 102550
88734, 364, 562, -31, 353850, 416570, 82460
88754, 358, 570, -27, 352590, 437990, 39480
88774, 371, 613, -20, 355250, 451570, -9800
88794, 397, 664, -19, 364140, 455490, -46270
88814, 426, 699, -14, 374290, 451640, -54390
88834, 456, 740, 0, 373520, 450800, -50820
88854, 510, 836, 12, 369320, 447230, -65940
88874, 591, 987, 7, 382130, 424830, -102760
88894, 673, 1138, 7, 411530, 382900, -138460
88914, 725, 1214, 17, 427000, 350910, -138040
88934, 742, 1212, 24, 419650, 336140, -88060
88954, 723, 1164, 38, 411670, 317310, -22260
88974, 719, 1176, 63, 401940, 295960, 11340
88994, 757, 1234, 77, 392350, 265300, 11130
89014, 821, 1292, 61, 389760, 213710, 28070
89034, 880, 1356, 43, 385910, 155050, 68110
89054, 898, 1409, 59, 359590, 123410, 88340
89074, 887, 1429, 91, 303520, 126560, 82250
89094, 848, 1347, 102, 251720, 116900, 92820
89114, 824, 1260, 80, 226660, 67970, 136920
89134, 785, 1192, 79, 215950, 70, 170940
89154, 747, 1134, 87, 181930, -41300, 168980
89174, 711, 1076, 96, 126000, -59990, 152040
89194, 679, 1039, 98, 77280, -89460, 134890
89214, 658, 1022, 87, 45920, -141330, 113260
89234, 620, 959, 74, 20090, -203350, 94850
89254, 580, 880, 58, -10850, -259280, 96250
89274, 533, 807, 46, -47530, -303310, 103390
89294, 484, 743, 44, -92330, -331170, 90090
89314, 421, 680, 48, -196420, -363930, 28630
89334, 379, 633, 33, -234570, -396970, 7770
89354, 355, 608, 14, -265440, -435750, -7910
89374, 343, 601, -1, -301980, -460600, -21700
89394, 334, 604, -9, -344890, -469070, -30100
89414, 322, 609, -13, -384860, -471240, -26040
89434, 323, 626, -16, -411530, -479850, -9170
89454, 344, 659, -22, -421190, -499030, 13090
89474, 381, 718, -25, -418460, -521360, 30240
89494, 433, 804, -22, -405090, -543760, 38920
89514, 509, 914, -21, -377370, -571340, 37730
89534, 607, 1078, -31, -335230, -604170, 22260
89554, 714, 1265, -45, -288680, -632240, 3150
89574, 748, 1284, -51, -246750, -643720, 14840
89594, 730, 1175, -63, -207200, -636090, 52500
89614, 694, 1046, -63, -175210, -604730, 59080
89634, 661, 967, -45, -160930, -545020, 14630
89654, 673, 980, -27, -143290, -485520, -52080
89674, 748, 1112, -24, -105560, -448420, -127330
89694, 854, 1319, -30, -60690, -422940, -199080
89714, 969, 1503, -52, -18970, -395850, -226310
89734, 1005, 1494, -61, 7700, -346080, -193270
89754, 918, 1295, -43, 8050, -256480, -135170
89774, 797, 1104, -13, 7630, -157570, -118790
89794, 733, 1018, -4, 38990, -94710, -149800
89814, 729, 1023, -22, 89600, -59500, -180880
89834, 745, 1054, -27, 139090, -26460, -189490
89854, 766, 1098, -34, 170730, 27230, -170940
89874, 736, 1066, -30, 190540, 93800, -133980
89894, 693, 1002, -33, 214340, 155890, -91910
89914, 619, 904, -24, 247100, 206710, -62860
89934, 561, 834, -28, 283500, 247870, -45430
89954, 507, 768, -34, 323120, 275730, -28630
89974, 466, 709, -47, 352940, 305970, 1540
89994, 407, 645, -51, 363160, 350840, 36890
90014, 354, 577, -43, 356580, 408100, 61460
90034, 318, 541, -32, 352520, 454370, 67970
90054, 305, 528, -27, 361690, 475650, 62720
90074, 308, 522, -33, 379470, 476420, 54460
90094, 309, 518, -35, 393260, 473690, 44240
90114, 320, 530, -33, 398090, 477330, 20300
90134, 344, 578, -29, 400750, 481950, -26390
90154, 389, 661, -23, 406420, 481740, -86870
90174, 458, 794, -19, 415380, 474880, -143710
90194, 556, 975, -22, 428470, 460460, -183680
90214, 668, 1170, -25, 442680, 444010, -191800
90234, 742, 1298, -3, 445060, 437640, -156030
90254, 753, 1311, 34, 430220, 442470, -88410
90274, 752, 1280, 43, 429030, 421540, -24710
90294, 766, 1267, 26, 459060, 356300, 7420
90314, 780, 1281, 30, 480410, 291690, 15260
90334, 817, 1336, 45, 458010, 266770, 27510
90354, 867, 1411, 60, 414400, 257880, 53830
90374, 908, 1488, 75, 374150, 239400, 80150
90394, 908, 1493, 80, 342370, 204330, 101500
90414, 852, 1366, 85, 310590, 160440, 143290
90434, 802, 1238, 82, 272440, 118510, 195020
90454, 767, 1177, 87, 229040, 81270, 203420
90474, 738, 1153, 105, 176120, 51310, 171430
90494, 715, 1114, 113, 122990, 14140, 150080
90514, 711, 1086, 93, 87430, -47880, 155330
90534, 698, 1057, 75, 62720, -120960, 159390
90554, 650, 1000, 82, 20860, -171570, 146020
90574, 585, 908, 85, -36400, -203000, 130200
90594, 523, 816, 74, -83440, -245140, 121660
90614, 473, 744, 56, -115920, -301840, 108500
90634, 426, 693, 45, -150290, -354410, 82600
90654, 385, 648, 27, -193970, -394590, 55230
90674, 353, 609, 14, -239330, -428610, 38010
90694, 335, 590, -8, -282800, -457100, 25620
90714, 322, 590, -16, -328370, -474180, 9380
90734, 306, 594, -14, -379470, -475160, -8330
90754, 296, 602, -18, -426440, -473620, -18760
90774, 309, 636, -30, -453600, -490070, -18270
90794, 350, 702, -39, -458570, -524440, -13020
90814, 397, 794, -36, -454090, -557550, -5600
90834, 443, 891, -26, -447370, -580510, 6720
90854, 515, 997, -41, -424830, -611520, 25690
90874, 602, 1109, -67, -378840, -658560, 44100
90894, 644, 1140, -71, -330260, -693980, 51170
90914, 645, 1079, -57, -302750, -688800, 56280
90934, 648, 1052, -53, -280700, -661220, 56560
90954, 673, 1064, -52, -244790, -637840, 23030
90974, 726, 1130, -55, -202510, -616210, -33040
90994, 808, 1248, -60, -163100, -589260, -90650
91014, 893, 1401, -51, -131740, -552580, -144130
91034, 966, 1513, -55, -114240, -498610, -190750
91054, 980, 1472, -67, -92050, -445340, -207620
91074, 922, 1327, -55, -67480, -388290, -187670
91094, 849, 1211, -28, -58730, -305550, -168280
91114, 820, 1172, -23, -53270, -213640, -178290
91134, 825, 1174, -32, 21910, -101920, -205940
91154, 827, 1178, -40, 62720, -48230, -202230
91174, 790, 1131, -27, 93870, 17990, -183050
91194, 748, 1068, -34, 124880, 82180, -152250
91214, 669, 944, -21, 157150, 143850, -115360
91234, 600, 854, -20, 195090, 195300, -92400
91254, 542, 782, -23, 243670, 226870, -79940
91274, 501, 727, -33, 287840, 255780, -58520
91294, 473, 693, -53, 320390, 290500, -34720
91314, 420, 645, -44, 333760, 343910, -8470
91334, 384, 611, -42, 343630, 395220, 18480
91354, 354, 581, -45, 359240, 428750, 42000
91374, 323, 551, -42, 371070, 457240, 59430
91394, 309, 531, -45, 382760, 477610, 65170
91414, 305, 520, -54, 393330, 492800, 55860
91434, 301, 524, -54, 395850, 511910, 28980
91454, 309, 544, -43, 395150, 531650, -11760
91474, 341, 602, -39, 403620, 537180, -63700
91494, 407, 726, -41, 423360, 527100, -123550
91514, 508, 907, -50, 447230, 511630, -177100
91534, 627, 1131, -59, 462980, 505610, -208390
91554, 726, 1330, -43, 463960, 515270, -205730
91574, 764, 1412, -10, 460320, 524090, -162190
91594, 739, 1340, 6, 474110, 498890, -91000
91614, 684, 1209, 25, 496370, 446670, -16730
91634, 675, 1161, 34, 505400, 393400, 29330
91654, 728, 1221, 35, 505750, 337890, 39410
91674, 823, 1354, 34, 489440, 293300, 36680
91694, 913, 1519, 38, 451220, 267890, 35350
91714, 954, 1615, 52, 398300, 254240, 54670
91734, 898, 1516, 82, 339990, 240660, 119210
91754, 808, 1320, 99, 287140, 211330, 198730
91774, 755, 1181, 93, 254310, 151340, 234780
91794, 729, 1108, 86, 223580, 88200, 220290
91814, 716, 1085, 88, 173880, 45150, 181580
91834, 713, 1104, 101, 111160, 13160, 149240
91854, 701, 1097, 107, 56840, -31990, 137900
91874, 679, 1059, 92, 18410, -97860, 143850
91894, 630, 971, 85, -16730, -167230, 152180
91914, 574, 879, 71, -58240, -224420, 145250
91934, 511, 795, 64, -102900, -274330, 122570
91954, 447, 714, 56, -151690, -314790, 97650
91974, 386, 642, 46, -203560, -349510, 79730
91994, 342, 594, 32, -250950, -388570, 64330
92014, 315, 562, 11, -292530, -430990, 45710
92034, 300, 555, -6, -333410, -465500, 21630
92054, 295, 573, -22, -378560, -484540, -5950
92074, 291, 596, -27, -426720, -490840, -27160
92094, 286, 619, -26, -470260, -493150, -30590
92114, 294, 648, -33, -496930, -507010, -14140
92134, 323, 700, -43, -499520, -540960, 11970
92154, 389, 795, -49, -482160, -585620, 32830
92174, 482, 948, -54, -453670, -628180, 37870
92194, 588, 1140, -55, -418880, -662970, 28140
92214, 673, 1286, -60, -379610, -690620, 20300
92234, 705, 1282, -76, -336420, -713580, 35210
92254, 697, 1172, -89, -290220, -723730, 66710
92274, 665, 1060, -80, -252630, -702100, 69020
92294, 645, 1010, -58, -232050, -648900, 22890
92314, 693, 1066, -58, -210070, -596470, -41930
92334, 796, 1224, -57, -175140, -559300, -106470
92354, 902, 1421, -44, -143640, -517370, -171920
92374, 991, 1568, -60, -117390, -468580, -222390
92394, 996, 1503, -81, -80150, -429660, -228970
92414, 881, 1248, -53, -61180, -363860, -183960
92434, 760, 1036, -18, -73990, -251440, -130200
92454, 707, 957, -10, -67550, -157290, -124740
92474, 719, 995, -23, -24780, -109620, -165900
92494, 755, 1080, -29, 28490, -76930, -213080
92514, 771, 1111, -30, 67690, -26740, -224910
92534, 728, 1028, -32, 96950, 35910, -183540
92554, 660, 915, -31, 123690, 101430, -113960
92574, 578, 800, -17, 152670, 163870, -66500
92594, 515, 733, -18, 185780, 217770, -53970
92614, 474, 686, -26, 233030, 247940, -57750
92634, 448, 657, -46, 284830, 265720, -50400
92654, 413, 623, -56, 323330, 291900, -29540
92674, 370, 585, -51, 333060, 346430, 3220
92694, 341, 557, -43, 330470, 408940, 33180
92714, 332, 552, -45, 331870, 457030, 51660
92734, 338, 564, -48, 346080, 480200, 54180
92754, 357, 598, -57, 362530, 493360, 44800
92774, 383, 646, -61, 377580, 503300, 21280
92794, 413, 709, -62, 384650, 521010, -13440
92814, 449, 785, -55, 389130, 540190, -53620
92834, 507, 908, -49, 392140, 557690, -99960
92854, 585, 1065, -53, 403060, 562030, -151900
92874, 646, 1189, -48, 424340, 553420, -187320
92894, 661, 1225, -14, 440650, 546560, -182700
92914, 662, 1207, 16, 443660, 546280, -140280
92934, 677, 1184, 12, 458710, 516880, -86310
92954, 700, 1195, 9, 493780, 385280, -41860
92974, 747, 1275, 18, 507430, 346010, -44730
92994, 810, 1369, 23, 485030, 318780, -25690
93014, 862, 1436, 30, 450730, 298900, 17850
93034, 875, 1465, 61, 403970, 285810, 63630
93054, 860, 1433, 80, 362880, 255220, 105630
93074, 820, 1329, 82, 332780, 202370, 150500
93094, 770, 1198, 80, 298410, 149450, 177170
93114, 731, 1118, 81, 248640, 110460, 168910
93134, 693, 1070, 98, 186970, 81200, 152110
93154, 668, 1032, 112, 129150, 40880, 148470
93174, 658, 1000, 109, 89110, -23310, 150080
93194, 645, 973, 97, 55300, -93240, 138670
93214, 625, 951, 84, 12600, -151830, 115570
93234, 577, 888, 83, -40460, -197120, 102760
93254, 521, 807, 75, -93380, -239050, 101220
93274, 468, 732, 63, -138320, -287560, 93660
93294, 417, 674, 51, -181300, -335160, 73990
93314, 375, 623, 37, -226800, -376530, 50190
93334, 343, 593, 18, -271040, -415030, 28910
93354, 324, 576, -1, -315980, -444850, 10430
93374, 315, 580, -13, -364210, -460530, -6020
93394, 308, 597, -14, -413070, -466340, -16660
93414, 312, 632, -17, -451080, -477400, -17850
93434, 340, 694, -24, -467740, -505330, -10010
93454, 395, 790, -39, -464870, -545370, 770
93474, 469, 918, -45, -451850, -584570, 11060
93494, 540, 1051, -42, -435890, -613620, 25410
93514, 608, 1171, -53, -404530, -646590, 43470
93534, 652, 1218, -69, -356300, -685020, 62020
93554, 638, 1138, -73, -315840, -700280, 90090
93574, 603, 1013, -64, -288470, -681800, 110950
93594, 599, 946, -62, -259140, -652400, 92820
93614, 635, 991, -51, -226590, -620970, 27510
93634, 716, 1132, -47, -194040, -589190, -59990
93654, 844, 1366, -53, -154490, -566510, -137130
93674, 960, 1549, -78, -111790, -547960, -187950
93694, 981, 1516, -78, -79520, -512400, -191380
93714, 886, 1289, -62, -77280, -431410, -144130
93734, 789, 1084, -37, -82390, -331590, -102760
93754, 728, 995, -21, -74340, -244930, -120470
93774, 720, 1008, -16, -47880, -181930, -174580
93794, 756, 1082, -21, -4970, -138670, -215670
93814, 801, 1147, -37, 41300, -100240, -218470
93834, 781, 1101, -35, 71610, -43330, -179200
93854, 710, 985, -28, 87640, 33600, -117950
93874, 629, 858, -21, 111090, 104440, -71470
93894, 542, 744, -10, 146370, 158340, -57470
93914, 495, 692, -18, 190960, 194600, -64680
93934, 460, 654, -28, 241640, 216930, -65520
93954, 438, 629, -44, 280210, 245770, -42420
93974, 399, 587, -43, 297080, 293160, -3570
93994, 369, 561, -39, 296730, 355460, 32550
94014, 348, 551, -31, 299250, 407680, 49070
94034, 348, 563, -35, 312060, 439460, 50750
94054, 358, 576, -42, 332920, 452900, 45850
94074, 381, 610, -53, 349230, 466200, 35420
94094, 403, 655, -56, 358750, 485240, 11550
94114, 444, 737, -60, 360920, 511770, -27510
94134, 483, 828, -53, 359520, 538790, -76230
94154, 536, 957, -44, 359730, 560350, -125300
94174, 609, 1096, -45, 374920, 563710, -163870
94194, 654, 1185, -38, 402010, 550620, -174510
94214, 658, 1186, -11, 418180, 541660, -151200
94234, 643, 1143, 12, 427560, 529200, -110810
94254, 660, 1144, 13, 450870, 488180, -84000
94274, 699, 1202, 13, 483210, 423220, -84490
94294, 771, 1309, 11, 497770, 368130, -89040
94314, 840, 1412, 12, 492310, 330610, -73430
94334, 884, 1479, 32, 467460, 311290, -36610
94354, 874, 1477, 67, 428260, 303520, 7210
94374, 841, 1395, 78, 391790, 284060, 51520
94394, 781, 1245, 76, 370790, 232610, 101570
94414, 735, 1140, 77, 343490, 178010, 147630
94434, 707, 1088, 84, 299320, 138110, 160790
94454, 690, 1057, 98, 244720, 106820, 146160
94474, 684, 1045, 107, 187810, 73290, 130130
94494, 677, 1041, 105, 139300, 23590, 121450
94514, 660, 1006, 89, 100100, -39900, 117880
94534, 611, 924, 84, 60200, -102270, 118300
94554, 550, 830, 84, 9310, -150220, 121520
94574, 477, 725, 82, -47670, -188790, 120120
94594, 426, 658, 67, -98350, -232610, 107240
94614, 390, 619, 56, -139930, -284620, 84420
94634, 366, 594, 35, -179620, -335650, 58240
94654, 349, 588, 20, -223090, -378000, 32130
94674, 338, 590, 6, -272230, -407470, 8400
94694, 331, 608, 0, -325010, -424900, -9940
94714, 342, 643, -8, -374780, -437640, -20300
94734, 369, 704, -20, -412860, -456540, -21560
94754, 404, 775, -26, -436100, -482300, -15680
94774, 443, 856, -28, -449050, -507990, -2520
94794, 496, 954, -35, -440160, -564130, 40810
94814, 551, 1043, -45, -409290, -601790, 62230
94834, 600, 1111, -52, -370650, -633640, 83020
94854, 632, 1130, -58, -333760, -649880, 100660
94874, 643, 1100, -58, -299110, -649250, 106680
94894, 647, 1068, -52, -264600, -634550, 91210
94914, 674, 1075, -44, -226310, -615930, 51590
94934, 723, 1142, -45, -185220, -597660, -6230
94954, 778, 1224, -53, -145600, -577570, -66290
94974, 827, 1282, -58, -113330, -544670, -103180
94994, 865, 1314, -51, -90930, -493430, -116900
95014, 887, 1320, -45, -71680, -431410, -122500
95034, 886, 1287, -41, -50190, -367360, -132650
95054, 851, 1216, -36, -31570, -297430, -147280
95074, 797, 1121, -20, -14770, -223510, -154840
95094, 754, 1055, -10, 10640, -158620, -156730
95114, 729, 1015, -15, 47740, -109410, -152740
95134, 709, 969, -22, 86100, -63910, -135310
95154, 687, 934, -26, 114730, -7770, -118300
95174, 650, 896, -19, 133000, 61040, -108290
95194, 606, 848, -11, 155610, 123200, -97160
95214, 571, 807, -16, 191520, 164920, -76230
95234, 533, 753, -27, 230720, 197120, -43820
95254, 480, 681, -29, 259210, 236250, -9870
95274, 438, 631, -29, 275310, 284620, 16730
95294, 401, 591, -30, 292110, 325150, 32200
95314, 375, 564, -36, 307370, 359870, 41650
95334, 351, 542, -38, 319200, 392140, 46060
95354, 337, 533, -43, 327950, 422100, 44730
95374, 336, 538, -42, 334460, 448490, 34650
95394, 351, 562, -48, 336840, 472500, 14910
95414, 373, 602, -41, 337610, 492100, -16380
95434, 416, 684, -36, 341740, 505120, -60410
95454, 483, 814, -35, 356930, 505890, -111510
95474, 588, 983, -43, 379190, 498400, -155680
95494, 688, 1198, -48, 397670, 493290, -184310
95514, 741, 1309, -37, 408520, 495180, -187180
95534, 723, 1293, -9, 411460, 501340, -157290
95554, 673, 1197, 22, 417690, 491260, -110110
95574, 648, 1120, 29, 441560, 443870, -62650
95594, 674, 1122, 28, 471030, 374290, -29680
95614, 745, 1219, 18, 483630, 314860, -23730
95634, 834, 1369, 19, 472150, 278530, -36960
95654, 911, 1520, 25, 440930, 263410, -42350
95674, 925, 1558, 49, 399420, 255640, -12180
95694, 853, 1420, 81, 353430, 244440, 62580
95714, 769, 1216, 87, 320250, 206780, 144550
95734, 714, 1085, 80, 300580, 145320, 181860
95754, 687, 1024, 79, 269570, 93870, 166950
95774, 668, 1014, 91, 218190, 61320, 128310
95794, 661, 1010, 100, 159110, 32760, 101990
95814, 652, 1000, 102, 107520, -8960, 103320
95834, 640, 969, 94, 65590, -66080, 115570
95854, 607, 910, 85, 27790, -127750, 120330
95874, 562, 845, 75, -12740, -182490, 108080
95894, 506, 771, 68, -57960, -228690, 86310
95914, 445, 693, 61, -108570, -266350, 71120
95934, 385, 614, 54, -160860, -299880, 65940
95954, 350, 571, 37, -207690, -337330, 59010
95974, 333, 553, 18, -248850, -376740, 41650
95994, 326, 561, 4, -290710, -406910, 15750
96014, 331, 591, -7, -336000, -424620, -12110
96034, 349, 641, -11, -381220, -434700, -32970
96054, 376, 710, -8, -420070, -443170, -39200
96074, 409, 787, -11, -444150, -459900, -27510
96094, 454, 873, -17, -448280, -491890, -840
96114, 536, 994, -43, -429660, -539910, 28770
96134, 612, 1120, -58, -394800, -591150, 46620
96154, 648, 1182, -53, -367010, -616350, 57680
96174, 628, 1122, -38, -352450, -613760, 83440
96194, 607, 1026, -44, -328160, -610400, 122780
96214, 603, 957, -48, -281400, -617260, 136920
96234, 625, 972, -42, -234360, -611520, 103390
96254, 688, 1077, -33, -200410, -585760, 34720
96274, 778, 1233, -32, -167720, -557900, -36960
96294, 884, 1380, -55, -127820, -538300, -84910
96314, 946, 1434, -70, -82530, -521920, -101780
96334, 899, 1329, -51, -51030, -480270, -105000
96354, 815, 1170, -29, -48020, -398230, -105910
96374, 761, 1059, -26, -40880, -315350, -103740
96394, 743, 1022, -26, -15820, -253750, -111300
96414, 732, 1022, -14, 11970, -196980, -131390
96434, 744, 1045, -26, 39970, -139790, -153930
96454, 736, 1023, -29, 79660, -97930, -159180
96474, 710, 987, -30, 109970, -46690, -136010
96494, 655, 918, -12, 127960, 20090, -108010
96514, 603, 841, -12, 145110, 88900, -80080
96534, 551, 758, -16, 175350, 137340, -50680
96554, 510, 708, -24, 213500, 170730, -27020
96574, 479, 679, -31, 247030, 205660, -17570
96594, 439, 643, -30, 273770, 242690, -13160
96614, 409, 604, -36, 293020, 334250, 30170
96634, 374, 565, -33, 298900, 374220, 49000
96654, 357, 547, -32, 304010, 409290, 50750
96674, 348, 545, -32, 312410, 432530, 38010
96694, 356, 563, -27, 320390, 448490, 18830
96714, 381, 599, -32, 329980, 455910, -4550
96734, 422, 662, -34, 339780, 461160, -36890
96754, 476, 762, -37, 348110, 469210, -85680
96774, 541, 895, -39, 354690, 480130, -141890
96794, 603, 1040, -34, 361900, 489720, -179760
96814, 655, 1147, -22, 371560, 492660, -179340
96834, 676, 1184, -4, 384300, 484260, -142310
96854, 684, 1170, 12, 402080, 458360, -95690
96874, 688, 1153, 22, 423290, 417410, -70140
96894, 716, 1191, 22, 443800, 366940, -73780
96914, 767, 1273, 21, 455770, 318150, -85120
96934, 826, 1369, 18, 452900, 280280, -78540
96954, 873, 1441, 24, 431480, 259840, -45220
96974, 870, 1432, 54, 393680, 253400, 7560
96994, 821, 1342, 80, 355670, 237790, 60130
97014, 781, 1246, 81, 336770, 188790, 97300
97034, 761, 1171, 75, 323680, 125440, 115080
97054, 750, 1140, 70, 289590, 81760, 112980
97074, 738, 1125, 84, 232400, 61390, 101640
97094, 715, 1101, 99, 172900, 39200, 95970
97114, 683, 1044, 102, 127190, -4550, 100940
97134, 637, 960, 96, 92470, -64330, 110250
97154, 586, 878, 88, 58310, -124950, 114520
97174, 541, 796, 75, 17570, -175000, 111510
97194, 493, 719, 72, -30170, -212310, 101780
97214, 446, 661, 67, -82390, -241150, 81900
97234, 407, 621, 64, -132650, -271740, 55440
97254, 378, 594, 54, -176610, -309050, 31220
97274, 353, 580, 40, -215250, -350140, 10780
97294, 352, 592, 22, -251090, -390320, -7000
97314, 367, 630, 3, -288680, -420420, -22960
97334, 392, 684, -7, -328370, -437500, -32830
97354, 427, 752, -13, -363510, -448350, -33040
97374, 455, 820, -14, -391510, -456190, -18900
97394, 482, 874, -15, -407960, -468230, 8400
97414, 525, 942, -22, -402220, -496790, 34790
97434, 576, 1018, -39, -376740, -535640, 47040
97454, 601, 1071, -38, -351680, -559720, 53760
97474, 583, 1049, -26, -334740, -563220, 74550
97494, 561, 965, -24, -310730, -566650, 118370
97514, 577, 922, -34, -269430, -577010, 151480
97534, 634, 978, -28, -223650, -577850, 129010
97554, 706, 1108, -20, -185570, -560350, 60130
97574, 810, 1277, -33, -146510, -544600, -10430
97594, 897, 1411, -50, -102130, -538370, -56140
97614, 903, 1390, -49, -63910, -518560, -70770
97634, 862, 1265, -47, -35700, -474180, -57470
97654, 813, 1146, -42, -13440, -415380, -47390
97674, 783, 1090, -30, 630, -345030, -69370
97694, 791, 1120, -15, 10360, -268520, -110110
97714, 832, 1212, -16, 34650, -208530, -150010
97734, 860, 1252, -31, 77210, -170940, -172130
97754, 819, 1160, -37, 116060, -130060, -151830
97774, 727, 997, -20, 133070, -61250, -97020
97794, 660, 897, -17, 141540, 17920, -56910
97814, 585, 812, -2, 160230, 80570, -52710
97834, 553, 772, -14, 192150, 122710, -58800
97854, 522, 726, -25, 235200, 144830, -52220
97874, 483, 682, -21, 262710, 179270, -27650
97894, 456, 652, -28, 273910, 227710, -910
97914, 421, 612, -25, 283010, 270970, 20440
97934, 392, 572, -29, 285740, 314160, 39550
97954, 354, 529, -20, 285390, 353850, 51590
97974, 340, 515, -18, 288960, 384930, 50050
97994, 334, 520, -16, 303590, 398230, 37170
98014, 349, 528, -24, 320250, 401520, 23590
98034, 360, 536, -23, 326480, 407330, 11480
98054, 388, 585, -19, 320040, 422590, -15400
98074, 447, 704, -14, 316400, 435190, -71540
98094, 547, 901, -24, 329420, 433160, -144760
98114, 666, 1138, -22, 348950, 425530, -203980
98134, 770, 1314, -13, 360360, 425950, -218400
98154, 812, 1364, -6, 367150, 428540, -176120
98174, 758, 1272, 9, 377230, 420420, -119210
98194, 692, 1164, 32, 389620, 401100, -89180
98214, 672, 1119, 43, 406280, 367570, -77700
98234, 744, 1196, 24, 427210, 314300, -62510
98254, 831, 1324, 20, 443030, 255850, -47040
98274, 912, 1495, 34, 432810, 224700, -44590
98294, 959, 1591, 47, 401590, 216440, -50820
98314, 915, 1493, 65, 372610, 201250, -22400
98334, 825, 1303, 75, 345310, 176820, 54250
98354, 760, 1177, 78, 320180, 141680, 115570
98374, 722, 1099, 80, 294700, 99680, 131320
98394, 702, 1054, 87, 261800, 60130, 128100
98414, 712, 1070, 86, 218540, 26390, 116060
98434, 717, 1094, 88, 174790, -51660, 77000
98454, 688, 1055, 88, 88410, -94920, 83440
98474, 626, 947, 87, 42070, -135800, 104370
98494, 562, 839, 81, 560, -181090, 109970
98514, 507, 746, 71, -36610, -228620, 97720
98534, 455, 668, 60, -78890, -266560, 76860
98554, 416, 617, 51, -125300, -297010, 52290
98574, 380, 580, 44, -175630, -320110, 26670
98594, 348, 556, 40, -226310, -340200, 6510
98614, 323, 540, 30, -271460, -362950, -5740
98634, 314, 543, 15, -308280, -390600, -12670
98654, 323, 567, 4, -339570, -416570, -17500
98674, 353, 627, -5, -366660, -437290, -22470
98694, 391, 703, -9, -385980, -457170, -24430
98714, 442, 807, -13, -395640, -478310, -15400
98734, 516, 940, -19, -392210, -504490, 8470
98754, 594, 1082, -20, -377720, -531230, 44310
98774, 671, 1197, -24, -350210, -561050, 80010
98794, 721, 1263, -44, -309050, -593390, 93520
98814, 692, 1195, -43, -274890, -603540, 99960
98834, 615, 1031, -29, -251370, -587230, 127120
98854, 578, 900, -26, -217980, -570780, 144760
98874, 618, 916, -29, -171640, -560140, 106890
98894, 713, 1092, -22, -123900, -546140, 10640
98914, 881, 1395, -39, -77700, -534380, -84350
98934, 1046, 1660, -76, -35000, -522970, -131180
98954, 1072, 1678, -75, -11830, -480550, -132510
98974, 931, 1387, -44, -6020, -400890, -92260
98994, 825, 1134, -49, 17990, -332430, -48090
99014, 770, 1043, -40, 44590, -270620, -71890
99034, 745, 1055, -16, 48650, -189420, -142100
99054, 745, 1088, 0, 63350, -122710, -185920
99074, 780, 1114, -26, 108920, -93590, -171500
99094, 797, 1123, -40, 157290, -68810, -131950
99114, 750, 1068, -35, 176190, -6860, -103530
99134, 660, 926, -22, 185080, 66360, -77980
99154, 577, 792, -22, 198730, 130200, -44520
99174, 495, 685, -14, 220500, 177170, -28910
99194, 440, 631, -4, 244930, 215950, -25340
99214, 413, 598, -14, 276430, 237580, -10360
99234, 390, 558, -27, 302890, 253540, 27300
99254, 355, 499, -31, 306530, 289590, 68110
99274, 318, 453, -20, 296170, 340550, 82320
99294, 306, 451, -14, 294210, 378910, 60200
99314, 322, 483, -15, 307720, 391650, 21490
99334, 346, 520, -25, 322070, 393540, -8960
99354, 371, 558, -23, 324170, 404110, -29890
99374, 415, 635, -24, 320530, 422660, -56700
99394, 475, 742, -24, 324450, 435260, -95130
99414, 542, 881, -19, 330680, 443660, -140630
99434, 617, 1042, -5, 335650, 449330, -180460
99454, 710, 1204, -8, 351960, 443100, -197190
99474, 770, 1306, -10, 383670, 418110, -184100
99494, 779, 1308, 0, 402220, 399350, -151550
99514, 734, 1233, 37, 402080, 391930, -110740
99534, 742, 1238, 35, 410690, 366380, -86590
99554, 800, 1318, 20, 445620, 299670, -90370
99574, 859, 1398, 25, 461370, 246470, -77840
99594, 924, 1513, 39, 438480, 232400, -42070
99614, 970, 1589, 42, 411880, 220220, -15470
99634, 959, 1573, 56, 398230, 191870, 9310
99654, 902, 1456, 67, 376110, 163590, 49980
99674, 836, 1310, 72, 344750, 134890, 102060
99694, 787, 1209, 73, 312620, 102620, 136430
99714, 748, 1152, 90, 271740, 73500, 133140
99734, 719, 1111, 100, 222110, 46620, 117250
99754, 707, 1071, 85, 183750, 1050, 114940
99774, 685, 1016, 76, 155960, -58520, 123340
99794, 643, 957, 80, 114380, -100730, 124740
99814, 580, 883, 90, 57610, -126280, 112490
99834, 523, 784, 84, 6650, -159880, 99260
99854, 473, 704, 71, -30730, -208810, 91350
99874, 433, 647, 58, -66150, -259490, 78820
99894, 394, 605, 49, -109900, -298270, 57960
99914, 363, 572, 40, -160370, -325430, 36190
99934, 340, 547, 19, -208600, -350630, 20370
99954, 320, 531, 7, -255010, -371490, 10220
99974, 306, 525, 2, -305200, -381150, 3430
99994, 299, 535, 5, -355880, -383530, -1330
100014, 317, 576, -1, -393890, -393400, -4620
100034, 363, 660, -10, -411250, -419790, -7000
100054, 433, 798, -11, -413840, -452830, -5390
100074, 503, 940, -6, -410410, -482370, 6230
100094, 616, 1131, -21, -395710, -517020, 31710
100114, 751, 1344, -53, -355810, -569310, 60340
100134, 788, 1387, -53, -304710, -616770, 83090
100154, 732, 1230, -44, -276780, -622090, 115080
100174, 688, 1095, -41, -257250, -603470, 149590
100194, 664, 1049, -20, -224210, -584920, 142450
100214, 663, 1037, -14, -189980, -558740, 88620
100234, 738, 1124, -37, -143920, -545020, 29330
100254, 883, 1346, -62, -82950, -549710, -20020
100274, 1016, 1600, -49, -21070, -480410, -123060
100294, 1052, 1628, -61, -3290, -421540, -123690
100314, 964, 1418, -56, 28770, -369530, -98910
100334, 843, 1199, -33, 40250, -288890, -96110
100354, 776, 1086, -10, 54740, -213220, -108920
100374, 791, 1107, -26, 90580, -168630, -133280
100394, 822, 1171, -35, 126770, -126140, -160790
100414, 820, 1196, -25, 142450, -58450, -166950
100434, 778, 1131, -20, 164780, 4060, -129780
100454, 718, 1018, -25, 196140, 53270, -75740
100474, 641, 890, -31, 219170, 106260, -40180
100494, 545, 764, -10, 230790, 168280, -21980
100514, 472, 666, -13, 255150, 208180, -9030
100534, 428, 599, -18, 286930, 229740, 8120
100554, 394, 555, -28, 305830, 257530, 25830
100574, 359, 514, -28, 311290, 295890, 38990
100594, 330, 487, -28, 308980, 338800, 48720
100614, 302, 459, -20, 306460, 374570, 55510
100634, 290, 436, -19, 304990, 399280, 56140
100654, 282, 425, -10, 306810, 411110, 41160
100674, 302, 448, -7, 313460, 411740, 5740
100694, 337, 498, -15, 327600, 401030, -42770
100714, 381, 575, -20, 335160, 399630, -96460
100734, 458, 717, -13, 336630, 406910, -151620
100754, 563, 925, -8, 340900, 413210, -203420
100774, 720, 1225, -21, 358960, 405160, -242690
100794, 844, 1453, -27, 376950, 395500, -245420
100814, 828, 1431, 6, 373800, 405230, -186970
100834, 725, 1227, 42, 371280, 402710, -95760
100854, 665, 1076, 41, 396970, 352730, -35210
100874, 667, 1064, 36, 431410, 282380, -35630
100894, 748, 1205, 33, 444430, 228900, -72310
100914, 871, 1414, 24, 435750, 192360, -96670
100934, 985, 1605, 23, 410690, 173250, -78120
100954, 1010, 1667, 50, 371560, 171850, -26880
100974, 925, 1507, 76, 335930, 163800, 40530
100994, 841, 1317, 80, 320320, 125370, 106820
101014, 800, 1216, 63, 312970, 69580, 128310
101034, 769, 1172, 63, 287490, 27720, 102970
101054, 740, 1140, 87, 230930, 16380, 84560
101074, 737, 1129, 95, 169960, 3990, 87220
101094, 740, 1128, 89, 135030, -42910, 90370
101114, 721, 1094, 79, 112770, -104650, 88830
101134, 668, 1001, 67, 78260, -152320, 84700
101154, 590, 876, 71, 29820, -182210, 80990
101174, 520, 774, 71, -23940, -203980, 75740
101194, 459, 686, 68, -69790, -234850, 67340
101214, 420, 627, 54, -109340, -272860, 54740
101234, 390, 591, 39, -147000, -310800, 36890
101254, 368, 568, 25, -190400, -337120, 12600
101274, 345, 556, 22, -241640, -348320, -11130
101294, 321, 546, 16, -294350, -352030, -24640
101314, 304, 543, 13, -337330, -363020, -20930
101334, 301, 549, 1, -365120, -386330, -3430
101354, 321, 580, -12, -378560, -417760, 17920
101374, 362, 642, -17, -384020, -446390, 34440
101394, 419, 739, -16, -384230, -467810, 42560
101414, 504, 894, -10, -376110, -486780, 45710
101434, 600, 1056, -12, -353990, -512330, 51450
101454, 709, 1227, -25, -316400, -547820, 61390
101474, 782, 1320, -48, -269710, -583940, 69440
101494, 778, 1283, -50, -225960, -600950, 73920
101514, 593, 1253, 135, -197610, -585830, 78540
101534, 1299, -1108, -459, -170240, -561330, 96530
101554, 1997, 1997, -1840, 507360, -799260, 331310
101574, -120, 1466, 375, 1325170, -232190, 121870
101594, 399, 1540, 150, 85750, 1319850, -324660
101614, 632, 1446, -48, 245070, 975520, -309960
101634, 264, 464, 187, 293720, 611590, -194880
101654, 216, 284, 130, 204190, 556500, 141610
101674, 447, 535, -217, 405090, 256200, 14000
101694, 298, 448, 308, 590660, -31360, -335370
101714, 739, 1478, -100, 382760, 115710, -553490
101734, 428, 455, 195, 119280, 311990, -349160
101754, 903, 1399, -185, -50470, 455700, 157920
101774, 567, 1090, 96, 122920, 338660, 99470
101794, 622, 1096, -149, -11620, 486080, 159950
101814, -694, 1540, -315, -42770, 440720, 252280
101834, 1252, 659, -415, 88200, 516180, 34930
101854, 517, 803, 167, 87710, 391300, -125580
101874, 109, 935, 20, 103600, -4200, -20930
101894, 384, 953, -222, 88830, -125860, 65940
101914, 552, 882, -32, -19530, -266490, 17430
101934, 582, 821, 32, -9100, -257320, -12320
101954, 340, 892, -168, -25200, -177660, -19950
101974, 465, 852, -184, -1190, -20860, 13720
101994, 406, 893, -154, -30590, 16730, -280
102014, 444, 878, -96, -4900, -14280, -420
102034, 476, 858, -89, 3290, -26600, 3850
102054, 452, 886, -91, 6300, -5180, -2100
102074, 453, 909, -102, 6090, 14770, -1470
102094, 449, 901, -122, 8610, 25340, -210
102114, 484, 904, -142, 12460, 35280, -8400
102134, 446, 915, -111, 14980, 38150, -15750
102154, 418, 903, -109, 20090, 50750, -23800
102174, 398, 902, -111, 18200, 61390, -26530
102194, 416, 890, -107, 11550, 49700, -16870
102214, 400, 929, -117, 6790, 28000, -5530
102234, 403, 903, -118, 1960, 10080, -3010
102254, 393, 901, -109, 4760, 0, -8680
102274, 409, 910, -63, 7840, 2380, -10920
102294, 381, 896, -70, 8750, 11550, -10570
102314, 410, 895, -75, 18270, 26670, -13020
102334, 353, 923, -117, 24850, 41230, -22680
102354, 429, 904, -115, 18760, 36820, -21350
102374, 362, 932, -100, 15750, 18830, -16660
102394, 371, 924, -116, 14420, 12530, -11550
102414, 383, 916, -103, 7910, 9800, -6860
102434, 385, 920, -74, 7420, 10500, -4270
102454, 378, 927, -79, 9450, 15610, -4410
102474, 435, 912, -96, 8890, 18130, -5040
102494, 370, 933, -88, 5320, 23870, -10220
102514, 384, 937, -85, 7000, 17080, -8190
102534, 371, 936, -85, 4830, 14210, -6720
102554, 368, 933, -82, 70, 15470, -4620
102574, 363, 936, -77, -1190, 9940, -1120
102594, 375, 927, -88, -1400, 7490, 560
102614, 371, 925, -74, -1680, 3500, 910
102634, 365, 918, -76, -1470, 2660, 420
102654, 360, 925, -66, -1050, -1400, 2240
102674, 388, 932, -56, -490, 0, 3150
102694, 368, 928, -85, 1330, 12810, -700
102714, 358, 930, -59, 70, 17990, -980
102734, 343, 915, -78, -1400, 14770, 910
102754, 338, 932, -55, -5250, 14560, 840
102774, 341, 939, -41, -7490, 14280, 3500
102794, 347, 935, -46, -11760, 17150, 7070
102814, 356, 932, -48, -14070, 23520, 7070
102834, 398, 940, -33, -15960, 30660, 7070
102854, 411, 921, -9, -22750, 39620, 13090
102874, 344, 801, -23, -28070, 31710, 51800
102894, 393, 927, -11, -17500, 25900, 45990
102914, 473, 1026, -4, -10500, 18830, 14910
102934, 452, 916, 10, -9100, 18760, 22820
102954, 431, 871, 5, -12600, 26040, 45500
102974, 430, 909, 37, -3500, 15330, 52080
102994, 500, 831, -14, 12810, -12810, 60410
103014, 494, 880, 62, 20370, -34790, 66990
103034, 494, 825, 46, 7560, -16030, 48930
103054, 512, 822, 45, 16170, -47320, 55160
103074, 498, 834, 51, 14630, -59010, 39550
103094, 503, 780, -21, -12670, -41860, 2380
103114, 520, 770, -35, -42210, -38430, -14840
103134, 608, 841, -43, -18550, -60060, 15610
103154, 498, 918, 68, -15540, -40180, 12110
103174, 564, 882, -58, -71400, -22400, -31920
103194, 576, 929, 32, -49350, -86170, 5810
103214, 550, 907, 108, -51800, -65520, 7210
103234, 566, 895, 71, -80850, -71050, 7070
103254, 565, 714, -316, -96530, -122010, 26040
103274, 404, 948, -68, -115010, -121170, 14700
103294, 552, 860, 56, -6440, 2100, -21140
103314, 596, 937, 81, 59640, 43610, 5460
103334, 577, 910, 85, 55090, 25340, -7910
103354, 552, 852, 77, 20790, 7140, -6930
103374, 516, 805, 86, -3780, -17500, 11900
103394, 392, 673, -171, -32900, -35490, 26530
103414, 477, 870, 16, -18340, -26600, 17850
103434, 561, 847, 47, 27370, 49000, -11480
103454, 581, 902, 78, 30450, 61600, 1540
103474, 590, 900, 68, 41090, 51870, 1540
103494, 593, 841, 0, 23730, 41370, -7280
103514, 548, 819, 6, 4200, 36190, -10710
103534, 524, 831, 36, 7770, 56630, -14770
103554, 511, 808, 59, 34160, 76020, -2590
103574, 525, 809, 68, 55440, 73780, 26950
103594, 555, 803, 43, 56630, 59080, 61040
103614, 588, 871, 57, 40950, 50960, 59570
103634, 604, 878, 22, 30310, 55650, 14210
103654, 579, 872, 11, 16870, 68670, -29400
103674, 554, 889, -2, 23730, 87290, -44660
103694, 525, 863, 81, 49840, 94850, -33040
103714, 526, 830, 97, 55370, 114100, 12670
103734, 551, 809, 72, 51730, 97930, 66080
103754, 554, 810, 79, 51030, 46620, 83230
103774, 551, 858, 96, 19530, 32550, 35140
103794, 549, 889, 100, -17780, 24570, -39690
103814, 553, 880, 84, -30240, -14070, -65940
103834, 543, 852, 75, -35070, -66150, -30520
103854, 522, 817, 81, -61250, -96110, 18410
103874, 518, 792, 79, -95270, -111650, 48580
103894, 538, 808, 54, -108640, -141120, 48510
103914, 540, 831, 58, -110810, -176960, -33740
103934, 517, 846, 81, -162820, -185290, -60550
103954, 509, 851, 73, -161280, -219800, -46550
103974, 526, 849, 45, -139650, -274960, -840
103994, 547, 842, 21, -137480, -300090, 37310
104014, 542, 823, 27, -165200, -280770, 36400
104034, 531, 817, 40, -192360, -252840, -770
104054, 527, 837, 46, -196840, -246820, -43050
104074, 523, 849, 49, -189490, -256690, -56350
104094, 533, 861, 43, -174440, -276010, -38710
104114, 562, 881, 24, -150850, -297990, -14770
104134, 600, 919, 6, -135870, -300440, -4760
104154, 606, 927, 13, -150360, -264880, -3500
104174, 572, 870, 33, -176820, -214340, 70
104194, 544, 821, 41, -176820, -190680, -3990
104214, 530, 797, 37, -147980, -196000, -18480
104234, 529, 793, 27, -114730, -204960, -29330
104254, 538, 796, 20, -94850, -199360, -21770
104274, 552, 799, 17, -90720, -175350, -1750
104294, 567, 815, 19, -97370, -135940, 9730
104314, 573, 828, 33, -102340, -93940, 6300
104334, 589, 862, 44, -88200, -69580, -9660
104354, 610, 910, 37, -52640, -68460, -28980
104374, 627, 928, 22, -15330, -70980, -31920
104394, 605, 885, 17, -770, -48860, -10150
104414, 560, 810, 25, -9660, -910, 25830
104434, 526, 751, 38, -17430, 44660, 48020
104454, 514, 727, 42, -4200, 65730, 40880
104474, 520, 741, 38, 27230, 66010, 14910
104494, 537, 773, 32, 58800, 65030, -12110
104514, 550, 803, 28, 76510, 77000, -22890
104534, 567, 838, 27, 78120, 102830, -13510
104554, 581, 861, 31, 72030, 134330, 3570
104574, 582, 878, 43, 70140, 160580, 11620
104594, 569, 866, 51, 80920, 171710, 12110
104614, 566, 855, 45, 104650, 164430, 12880
104634, 579, 863, 29, 130760, 149590, 9170
104654, 584, 876, 23, 138880, 152390, 1820
104674, 562, 862, 40, 120750, 182840, -1680
104694, 532, 832, 63, 95760, 216020, 5880
104714, 523, 814, 67, 95130, 214900, 19740
104734, 530, 801, 54, 119560, 180390, 30660
104754, 540, 805, 44, 138670, 149940, 32830
104774, 554, 826, 46, 134050, 145600, 23590
104794, 575, 871, 49, 115430, 155750, 6300
104814, 591, 917, 59, 97720, 162960, -8610
104834, 591, 929, 76, 82390, 165060, -7280
104854, 591, 927, 77, 79170, 150010, 8190
104874, 589, 895, 60, 93380, 112630, 29540
104894, 574, 848, 50, 99120, 82110, 48090
104914, 531, 786, 58, 76860, 82530, 47950
104934, 497, 750, 76, 41580, 97720, 29470
104954, 492, 751, 84, 23730, 91350, 9450
104974, 508, 768, 78, 25480, 58660, 4900
104994, 538, 805, 70, 29190, 20090, 14490
105014, 575, 853, 64, 25060, -8820, 21770
105034, 610, 910, 56, 15190, -26250, 14490
105054, 615, 935, 63, -2240, -30520, -2730
105074, 573, 889, 79, -29120, -23450, -14000
105094, 533, 824, 77, -45850, -29540, -8120
105114, 514, 772, 64, -39480, -62370, 12530
105134, 517, 753, 51, -30520, -98210, 31080
105154, 521, 754, 47, -37730, -113050, 30730
105174, 528, 777, 54, -59780, -106260, 11970
105194, 542, 819, 65, -84490, -93170, -13930
105214, 565, 877, 71, -97510, -92820, -34650
105234, 596, 922, 60, -89390, -115640, -41160
105254, 607, 930, 39, -69300, -149030, -29750
105274, 590, 883, 34, -63210, -163100, -5250
105294, 552, 813, 41, -79870, -147280, 19600
105314, 520, 761, 52, -101500, -121380, 29260
105334, 512, 755, 56, -109970, -107940, 16310
105354, 531, 792, 52, -101220, -113400, -9660
105374, 568, 851, 41, -82040, -130130, -31640
105394, 608, 910, 32, -65450, -142030, -37800
105414, 618, 925, 35, -62860, -135380, -27860
105434, 601, 898, 42, -73360, -110880, -7280
105454, 577, 852, 48, -81970, -85820, 11130
105474, 564, 820, 45, -76020, -75180, 15960
105494, 558, 814, 36, -56350, -77560, 4480
105514, 557, 810, 36, -38080, -77210, -12250
105534, 559, 817, 38, -32410, -63490, -17920
105554, 561, 822, 41, -33110, -43470, -10710
105574, 569, 826, 45, -32830, -24290, 4130
105594, 575, 836, 45, -27440, -10150, 14490
105614, 582, 849, 40, -13020, -4270, 7490
105634, 575, 843, 37, 6650, -2870, -10010
105654, 555, 813, 36, 17570, 7140, -17220
105674, 536, 782, 42, 15750, 28700, -5180
105694, 528, 769, 45, 13230, 49280, 12670
105714, 531, 770, 48, 18410, 60200, 22050
105734, 546, 792, 48, 29120, 63770, 20300
105754, 575, 839, 40, 56770, 61110, -12040
105774, 597, 892, 34, 63490, 67340, -26600
105794, 595, 901, 43, 55930, 87640, -19670
105814, 576, 872, 54, 45360, 107590, 5950
105834, 556, 832, 56, 49910, 107380, 28910
105854, 544, 801, 50, 64540, 94010, 34650
105874, 536, 783, 47, 73640, 85680, 22120
105894, 532, 780, 49, 73780, 86310, 1540
105914, 534, 792, 51, 68390, 90650, -12530
105934, 545, 818, 54, 60340, 94780, -13790
105954, 560, 847, 60, 53690, 95200, -4970
105974, 570, 866, 64, 52710, 87990, 7840
105994, 579, 868, 62, 57680, 72940, 17080
106014, 582, 864, 53, 62090, 57750, 16590
106034, 574, 850, 54, 56350, 53900, 8750
106054, 561, 839, 60, 41370, 59780, 0
106074, 549, 829, 67, 28840, 60480, -1330
106094, 541, 817, 68, 24710, 48370, 10010
106114, 541, 806, 64, 25200, 29190, 23870
106134, 550, 810, 60, 24430, 11760, 25550
106154, 564, 832, 56, 19320, 1190, 13160
106174, 571, 853, 60, 8330, -2030, -2870
106194, 568, 861, 66, -6510, -1750, -9380
106214, 564, 856, 69, -15190, -9100, -3780
106234, 563, 846, 62, -13720, -27510, 7840
106254, 565, 836, 55, -11340, -45710, 18340
106274, 556, 818, 54, -18130, -52080, 22540
106294, 549, 807, 55, -30380, -50330, 15540
106314, 546, 811, 57, -39480, -49840, -1750
106334, 547, 822, 61, -44660, -52710, -15120
106354, 550, 828, 60, -45920, -60480, -12950
106374, 557, 832, 54, -42350, -73150, 1190
106394, 565, 835, 46, -39620, -82110, 13510
106414, 572, 841, 46, -43960, -78820, 12950
106434, 567, 838, 53, -53340, -66780, 2730
106454, 552, 824, 55, -57330, -59920, -6650
106474, 554, 820, 53, -51170, -64330, -8960
106494, 561, 827, 48, -40040, -73640, -6020
106514, 569, 838, 44, -31990, -76930, -1260
106534, 574, 840, 42, -31640, -69720, 3640
106554, 568, 830, 45, -35770, -56210, 6090
106574, 563, 827, 49, -37940, -43680, 2940
106594, 567, 837, 51, -32550, -37870, -6090
106614, 573, 850, 48, -20790, -38290, -12250
106634, 580, 855, 43, -9030, -38990, -8050
106654, 578, 844, 41, -4060, -32130, 4200
106674, 580, 842, 43, -5810, -16660, 13160
106694, 576, 843, 47, -6160, -1120, 9100
106714, 572, 843, 51, -980, 8540, -140
106734, 565, 830, 49, 8470, 11760, -3990
106754, 563, 821, 42, 19740, 11410, -1960
106774, 559, 816, 39, 29050, 13300, 280
106794, 543, 793, 46, 27510, 26600, 5880
106814, 536, 785, 52, 19740, 44660, 12600
106834, 545, 795, 53, 21700, 50470, 8820
106854, 567, 833, 49, 33810, 44800, -4550
106874, 585, 870, 46, 44520, 40390, -18340
106894, 586, 879, 52, 44870, 45850, -17080
106914, 586, 868, 49, 40600, 54460, -1820
106934, 570, 846, 51, 37940, 59990, 11620
106954, 558, 830, 56, 35420, 65170, 14910
106974, 549, 820, 58, 36610, 65170, 8750
106994, 555, 824, 54, 43260, 56280, 1610
107014, 563, 835, 46, 51240, 43680, -4200
107034, 558, 831, 53, 48020, 43050, -5740
107054, 553, 834, 62, 32410, 55370, -700
107074, 561, 838, 62, 23030, 58520, 4200
107094, 567, 844, 55, 27230, 45080, 6510
107114, 563, 837, 58, 31290, 31150, 4900
107134, 555, 826, 58, 27090, 26390, -420
107154, 550, 820, 58, 21420, 22820, -4130
107174, 545, 808, 59, 14070, 20020, -140
107194, 548, 813, 63, 2940, 20020, 6860
107214, 560, 834, 64, -3150, 14840, 7840
107234, 583, 871, 58, 0, 280, 560
107254, 594, 889, 54, 4410, -15120, -10220
107274, 590, 885, 57, -1470, -18270, -13020
107294, 575, 862, 59, -13720, -13370, -6370
107314, 555, 831, 59, -21350, -13090, 3500
107334, 540, 800, 58, -24150, -18270, 14700
107354, 533, 779, 57, -24570, -26040, 20580
107374, 539, 787, 53, -23730, -34720, 15610
107394, 553, 817, 50, -22680, -41860, 1260
107414, 563, 840, 54, -25690, -42910, -13370
107434, 567, 849, 58, -33950, -37450, -16450
107454, 563, 841, 59, -39130, -35140, -6160
107474, 564, 831, 50, -35770, -41510, 8470
107494, 560, 818, 47, -27720, -50890, 14910
107514, 549, 804, 49, -25690, -50960, 12670
107534, 545, 800, 49, -30590, -42000, 6090
107554, 546, 805, 51, -34160, -34160, -1120
107574, 559, 827, 56, -29400, -30870, 70
107594, 585, 863, 51, -18550, -37030, -210
107614, 605, 893, 45, -9030, -39900, -1330
107634, 604, 891, 46, -9520, -30800, -1190
107654, 591, 872, 48, -14770, -15820, -1120
107674, 572, 849, 50, -13510, -7350, -420
107694, 557, 823, 51, -6650, -5740, 5180
107714, 545, 801, 51, 840, -6510, 12880
107734, 542, 784, 46, 7700, -6860, 15820
107754, 548, 791, 43, 12670, -4200, 7280
107774, 553, 806, 46, 11340, 5880, -5040
107794, 554, 819, 53, 6440, 18900, -8540
107814, 564, 834, 57, 9100, 21980, -5040
107834, 574, 848, 50, 20790, 14700, -1750
107854, 574, 849, 45, 29330, 11550, 1470
107874, 559, 828, 49, 26740, 20370, 6930
107894, 553, 810, 54, 21840, 30240, 10990
107914, 559, 820, 50, 23940, 31780, 7000
107934, 570, 843, 53, 28840, 30380, -3570
107954, 575, 861, 56, 30380, 31710, -9240
107974, 577, 863, 58, 32340, 30590, -2800
107994, 582, 863, 50, 38990, 23030, 5320
108014, 575, 849, 48, 39480, 22610, 8470
108034, 558, 825, 55, 29540, 33880, 7910
108054, 544, 809, 62, 24290, 37940, 4550
108074, 548, 809, 56, 30310, 27020, 2240
108094, 554, 817, 53, 35980, 15400, 840
108114, 554, 820, 56, 31290, 15400, -210
108134, 553, 823, 57, 23800, 18200, -980
108154, 550, 815, 56, 19110, 16520, 1750
108174, 544, 804, 59, 13160, 14770, 7000
108194, 546, 810, 60, 8680, 11480, 6510
108214, 559, 829, 58, 9730, 2940, -560
108234, 575, 856, 53, 12180, -7280, -7980
108254, 579, 861, 53, 7210, -9520, -8470
108274, 574, 858, 57, -3780, -4410, -3150
108294, 577, 859, 61, -10010, -3640, -140
108314, 576, 858, 56, -8540, -10990, -280
108334, 566, 840, 54, -6650, -18830, 770
108354, 551, 812, 54, -11130, -19600, 4340
108374, 542, 797, 54, -16380, -19040, 3850
108394, 540, 794, 50, -18690, -20650, -1330
108414, 541, 800, 55, -23520, -19320, -3360
108434, 551, 815, 56, -28840, -17780, -840
108454, 568, 838, 53, -28000, -22400, 770
108474, 590, 874, 47, -22190, -30170, -3850
108494, 595, 888, 48, -21280, -30310, -10220
108514, 585, 876, 53, -27090, -22190, -8400
108534, 573, 848, 53, -30450, -16800, 1680
108554, 560, 824, 50, -28420, -16800, 12110
108574, 547, 804, 50, -24850, -17360, 15610
108594, 536, 784, 51, -22120, -16310, 13090
108614, 531, 777, 51, -20090, -15050, 9170
108634, 536, 783, 47, -17780, -14560, 4130
108654, 554, 811, 51, -16730, -11970, -1190
108674, 579, 857, 52, -17010, -6720, -4620
108694, 610, 908, 52, -12950, -5460, -6650
108714, 622, 928, 48, -4340, -8400, -4900
108734, 610, 906, 49, 70, -6160, 2170
108754, 586, 871, 48, 700, 770, 5600
108774, 562, 828, 49, 2800, 6790, 7280
108794, 539, 789, 52, 3850, 12670, 13720
108814, 521, 761, 54, 3500, 17500, 20790
108834, 531, 768, 51, 6720, 17290, 22540
108854, 551, 805, 48, 16450, 10500, 10920
108874, 566, 837, 48, 23310, 7210, -7000
108894, 574, 853, 52, 20370, 14070, -13230
108914, 573, 856, 55, 16030, 21350, -6230
108934, 572, 848, 51, 17990, 21070, 4410
108954, 552, 817, 53, 22680, 18130, 12110
108974, 537, 786, 56, 22750, 19880, 18270
108994, 535, 781, 51, 22330, 20230, 19320
109014, 543, 794, 48, 27650, 13790, 9800
109034, 553, 819, 55, 28280, 13090, -2170
109054, 568, 852, 60, 20860, 20510, -9100
109074, 592, 887, 55, 20300, 19040, -10990
109094, 603, 897, 46, 29960, 6160, -7770
109114, 586, 874, 53, 32060, 2100, -910
109134, 560, 834, 58, 22120, 11760, 6300
109154, 549, 808, 55, 15680, 17010, 11620
109174, 548, 804, 54, 17920, 10990, 11340
109194, 545, 804, 56, 19040, 5390, 5880
109214, 551, 818, 59, 15750, 4900, -770
109234, 565, 837, 55, 13720, 2380, -5530
109254, 577, 857, 50, 13790, -3640, -5880
109274, 578, 858, 55, 11620, -6860, -3710
109294, 567, 849, 61, 4200, -2870, -1330
109314, 566, 840, 58, -1820, -490, 70
109334, 560, 824, 53, 980, -8540, 1120
109354, 553, 812, 51, 3780, -16590, 3290
109374, 547, 807, 56, -1120, -15750, 3150
109394, 547, 808, 55, -7350, -12600, 210
109414, 553, 816, 55, -10640, -17570, -2100
109434, 565, 831, 55, -12950, -18830, -3290
109454, 580, 863, 55, -11760, -21980, -8540
109474, 593, 884, 50, -9310, -25270, -12950
109494, 590, 877, 51, -13580, -21420, -6370
109514, 571, 848, 54, -20090, -14980, 6090
109534, 557, 820, 50, -20160, -14560, 12110
109554, 547, 802, 50, -17220, -16590, 10500
109574, 540, 792, 51, -16520, -16520, 5950
109594, 544, 795, 50, -16170, -16310, 490
109614, 553, 813, 48, -15050, -16170, -5180
109634, 572, 844, 49, -15470, -13230, -9380
109654, 583, 871, 51, -16870, -8260, -8260
109674, 584, 868, 54, -15820, -6090, -210
109694, 577, 850, 49, -10780, -8190, 7980
109714, 560, 819, 47, -7490, -7420, 11480
109734, 543, 793, 50, -9030, -700, 11130
109754, 534, 782, 51, -10290, 5110, 7840
109774, 539, 786, 52, -8330, 6160, 5250
109794, 556, 815, 50, -3850, 4200, 1050
109814, 575, 848, 50, 140, 3920, -5180
109834, 588, 876, 49, 2170, 6510, -7770
109854, 590, 880, 51, 3710, 9450, -3640
109874, 583, 861, 49, 4480, 12810, 4900
109894, 569, 838, 50, 5040, 16800, 10570
109914, 552, 811, 52, 5320, 21000, 12390
109934, 540, 794, 54, 7350, 21980, 11900
109954, 540, 791, 51, 11410, 19460, 10220
109974, 552, 809, 48, 14420, 17570, 5600
109994, 569, 840, 53, 15680, 18340, -2940
110014, 576, 859, 54, 14350, 21910, -6860
110034, 577, 859, 56, 13370, 23730, -1890
110054, 569, 845, 52, 15540, 21140, 6650
110074, 556, 822, 51, 18830, 17500, 11830
110094, 541, 799, 55, 18620, 17920, 12810
110114, 538, 793, 56, 15680, 19810, 11970
110134, 550, 806, 55, 16870, 16310, 7000
110154, 558, 825, 54, 19390, 11550, -490
110174, 562, 838, 57, 16870, 12040, -4200
110194, 566, 846, 57, 14770, 11130, -1960
110214, 581, 861, 51, 18690, 3290, 2520
110234, 586, 867, 50, 20720, -1820, 5040
110254, 580, 865, 55, 14840, 2730, 5110
110274, 574, 858, 59, 9800, 6580, 4340
110294, 576, 855, 55, 11900, 1400, 4200
110314, 577, 855, 51, 16450, -6930, 3500
110334, 567, 841, 54, 15260, -8260, 3780
110354, 561, 833, 56, 9940, -5320, 5810
110374, 563, 832, 54, 7980, -6860, 7070
110394, 564, 835, 50, 8400, -11060, 6440
110414, 560, 829, 55, 5250, -10500, 3780
110434, 557, 829, 58, 1330, -9170, 1120
110454, 558, 823, 55, 2590, -14210, 1820
110474, 556, 817, 52, 4270, -20090, 5180
110494, 553, 815, 51, 910, -19600, 5810
110514, 548, 810, 56, -4690, -15400, 3430
110534, 557, 822, 53, -6580, -15400, -70
110554, 561, 828, 52, -3780, -20930, -3850
110574, 561, 828, 52, -3780, -22750, -3010
110594, 562, 832, 53, -7490, -19740, -630
110614, 570, 841, 50, -8610, -19040, -560
110634, 577, 849, 47, -7000, -20510, -1330
110654, 568, 842, 53, -9380, -17010, -1400
110674, 569, 842, 52, -13510, -11130, -1820
110694, 573, 849, 51, -10430, -12530, -3780
110714, 577, 854, 47, -5950, -15190, -2940
110734, 571, 846, 50, -7140, -11550, 490
110754, 565, 831, 52, -11060, -4270, 5320
110774, 562, 829, 50, -10920, -1120, 5530
110794, 556, 819, 50, -6580, -2660, -140
110814, 552, 813, 51, -4900, -1050, -2240
110834, 548, 806, 51, -5110, 1960, -840
110854, 547, 800, 48, -4480, 3360, 2030
110874, 547, 801, 49, -4200, 5110, 5040
110894, 546, 804, 52, -5040, 8400, 4060
110914, 549, 809, 53, -5600, 11480, 350
110934, 560, 822, 49, -2940, 10710, -3360
110954, 569, 840, 49, 490, 8820, -5180
110974, 575, 854, 50, 1400, 9940, -4760
110994, 578, 858, 51, 840, 13300, -2870
111014, 574, 851, 53, 70, 16730, 280
111034, 571, 845, 50, 1260, 17570, 2590
111054, 567, 837, 51, 5180, 15400, 1750
111074, 560, 830, 52, 7770, 14630, -210
111094, 560, 826, 52, 7420, 16240, -420
111114, 563, 832, 50, 7350, 16660, 630
111134, 567, 840, 54, 8050, 15960, 1260
111154, 572, 853, 56, 6720, 17220, 1120
111174, 579, 860, 53, 7070, 16240, -910
111194, 575, 854, 51, 11620, 10570, -3640
111214, 566, 839, 53, 12600, 8260, -1610
111234, 553, 821, 56, 5180, 12530, 8610
111254, 547, 808, 56, 5810, 9030, 9590
111274, 545, 800, 56, 7140, 4130, 6020
111294, 542, 797, 54, 7420, 560, 840
111314, 542, 798, 55, 5460, -840, -1610
111334, 546, 805, 55, 3010, -2240, -1820
111354, 547, 812, 54, 1260, -4480, -140
111374, 552, 815, 55, -1610, -5040, 3220
111394, 558, 826, 56, -3430, -6580, 3640
111414, 568, 840, 55, -1680, -11200, 490
111434, 574, 852, 51, 0, -14700, -3220
111454, 570, 851, 52, -2800, -13090, -3150
111474, 564, 839, 55, -6090, -10640, 2940
111494, 566, 838, 53, -4970, -12950, 9800
111514, 571, 843, 53, -1960, -16730, 10780
111534, 580, 855, 52, 140, -18130, 5600
111554, 577, 853, 53, 560, -17010, -210
111574, 570, 847, 52, 1050, -16380, -2380
111594, 560, 830, 54, 630, -14910, 2870
111614, 555, 819, 54, -210, -13020, 10990
111634, 561, 826, 52, 2380, -14560, 12530
111654, 571, 843, 50, 6230, -16660, 8820
111674, 580, 860, 50, 6300, -14000, 3360
111694, 585, 868, 55, 3710, -8190, -1260
111714, 590, 879, 53, 5250, -6440, -3360
111734, 581, 867, 52, 8890, -7070, 980
111754, 564, 834, 53, 8750, -4550, 12390
111774, 546, 800, 52, 7980, -1750, 23100
111794, 541, 783, 49, 9240, -1260, 23940
111814, 541, 790, 47, 11550, -1470, 11550
111834, 543, 798, 53, 10780, 1610, -2030
111854, 548, 809, 56, 8330, 5250, -6650
111874, 558, 824, 52, 10150, 2940, -4410
111894, 566, 836, 50, 13230, -420, 2800
111914, 571, 841, 49, 11480, 2170, 9870
111934, 569, 837, 55, 7140, 8050, 11410
111954, 574, 844, 52, 7070, 9380, 6020
111974, 574, 850, 54, 9870, 7700, -3780
111994, 571, 850, 53, 10150, 8470, -10640
112014, 564, 842, 55, 9450, 9730, -8470
112034, 558, 822, 53, 8540, 9870, 2520
112054, 550, 805, 51, 6370, 10570, 12180
112074, 543, 795, 52, 2940, 13300, 12810
112094, 544, 801, 54, 490, 15330, 4200
112114, 553, 820, 55, 1050, 13230, -7280
112134, 567, 841, 52, 2730, 9240, -12740
112154, 577, 857, 51, 2380, 7350, -11130
112174, 578, 858, 57, -1610, 9940, -4480
112194, 577, 856, 55, -4480, 11340, 2240
112214, 569, 841, 55, -3500, 8680, 4200
112234, 563, 832, 53, -2870, 6720, 840
112254, 559, 827, 52, -3430, 6370, -5460
112274, 558, 826, 55, -3990, 5670, -8260
112294, 556, 822, 53, -4760, 4200, -5180
112314, 556, 819, 53, -7210, 4060, 1260
112334, 564, 830, 55, -8890, 3570, 3710
112354, 576, 854, 52, -7000, 70, -2100
112374, 583, 867, 53, -4060, -3990, -10990
112394, 574, 858, 53, -4690, -4060, -14070
112414, 560, 832, 53, -8540, -700, -7770
112434, 542, 797, 55, -10990, 770, 4200
112454, 525, 768, 54, -10920, -1120, 14770
112474, 524, 758, 53, -9870, -4410, 16730
112494, 537, 781, 50, -8260, -7910, 7560
112514, 564, 832, 50, -5950, -10850, -9170
112534, 592, 882, 54, -5950, -10430, -23100
112554, 617, 930, 58, -8610, -6790, -24010
112574, 627, 948, 53, -7210, -7070, -14350
112594, 614, 919, 49, -1190, -11130, 0
112614, 574, 846, 52, 910, -10360, 14070
112634, 539, 787, 52, -2380, -3710, 23240
112654, 524, 762, 52, -3220, 0, 21630
112674, 520, 758, 54, -70, -1260, 10780
112694, 528, 776, 57, 1890, -2450, 1960
112714, 550, 810, 53, 4550, -5670, -1680
112734, 575, 848, 50, 9940, -12040, -2870
112754, 592, 878, 48, 13650, -15330, -3570
112774, 584, 872, 54, 10780, -9660, -2450
112794, 573, 851, 54, 4760, -280, 3220
112814, 555, 820, 51, 7420, -1120, 7910
112834, 537, 782, 51, 14140, -6720, 12600
112854, 522, 759, 53, 14420, -5530, 17080
112874, 532, 773, 52, 12390, -2590, 16030
112894, 563, 826, 50, 14280, -4130, 9030
112914, 600, 891, 51, 17150, -6300, -3150
112934, 620, 934, 54, 15960, -2870, -14350
112954, 618, 934, 56, 13510, 2870, -14420
112974, 600, 897, 51, 15680, 2870, -3290
112994, 568, 840, 49, 20790, -1050, 10850
113014, 536, 781, 52, 20650, 1470, 22470
113034, 512, 744, 54, 14420, 10290, 26810
113054, 502, 728, 54, 8960, 16100, 16870
113074, 517, 751, 53, 12880, 7070, 4760
113094, 547, 802, 54, 14910, 2520, -8750
113114, 581, 864, 53, 15190, 770, -16940
113134, 619, 930, 50, 15120, 280, -17360
113154, 635, 960, 49, 10990, 5180, -9170
113174, 622, 944, 52, 4130, 14000, 4200
113194, 586, 879, 56, 560, 18970, 18200
113214, 553, 810, 55, 3080, 15820, 26110
113234, 527, 765, 51, 7000, 10010, 22680
113254, 518, 748, 51, 5670, 9730, 11340
113274, 522, 760, 53, 910, 12740, -2660
113294, 544, 795, 55, -2380, 13230, -12810
113314, 566, 840, 54, -2380, 9380, -15190
113334, 579, 864, 55, -1540, 5040, -10780
113354, 581, 864, 55, -1050, 1820, -4410
113374, 571, 844, 51, -280, -980, 280
113394, 553, 814, 50, -2870, -140, 4480
113414, 535, 782, 54, -9450, 5040, 6090
113434, 527, 770, 55, -13580, 7210, 2240
113454, 534, 786, 55, -11480, 2240, -4060
113474, 553, 815, 53, -8260, -4550, -7420
113494, 583, 864, 51, -7070, -8750, -10150
113514, 613, 915, 48, -6580, -9730, -14700
113534, 628, 950, 50, -8750, -5600, -16800
113554, 612, 928, 55, -13020, 770, -11130
113574, 579, 865, 55, -13580, 2170, 3780
113594, 546, 801, 50, -8260, -3360, 17290
113614, 518, 748, 48, -4690, -7140, 20090
113634, 497, 719, 51, -7350, -4760, 15260
113654, 494, 716, 54, -11130, -2170, 7000
113674, 516, 747, 54, -10780, -5320, -5460
113694, 546, 805, 52, -6510, -11970, -19810
113714, 576, 858, 54, -4900, -14350, -25340
113734, 603, 903, 56, -4760, -14490, -19740
113754, 624, 931, 47, -1120, -17710, -9240
113774, 620, 922, 47, 630, -16940, 1750
113794, 591, 879, 54, -4830, -6720, 8050
113814, 560, 833, 58, -8680, 1820, 9100
113834, 542, 797, 52, -1820, -2450, 7910
113854, 526, 769, 48, 5810, -9240, 8540
113874, 518, 752, 54, 4970, -7700, 11480
113894, 524, 761, 53, 2450, -4270, 10290
113914, 546, 796, 51, 4900, -5950, 1470
113934, 571, 841, 51, 8540, -8890, -10080
113954, 587, 876, 55, 8330, -6720, -15540
113974, 595, 893, 54, 7840, -3920, -11830
113994, 592, 885, 49, 11620, -5460, -2520
114014, 571, 845, 50, 13860, -5250, 11060
114034, 550, 805, 54, 10010, 1680, 22960
114054, 539, 785, 54, 8120, 6300, 22470
114074, 545, 796, 50, 13440, 3080, 10010
114094, 553, 816, 52, 17710, 350, -1680
