T [ms],AccX [mg],AccY [mg],AccZ [mg],GyroX [mdps],GyroY [mdps],GyroZ [mdps]
5593, -2, 86, 1026, 2590, -140, 4340
5613, -1, 67, 1028, 2590, -70, 1120
5633, 1, 70, 1026, 2590, 0, 2170
5653, 2, 68, 1029, 2590, -210, 140
5673, 4, 69, 1027, 2590, -140, 700
5693, 2, 68, 1026, 2660, 140, 1820
5713, 33, 31, 1029, 2730, 560, 1540
5733, -15, 85, 1028, 2590, 0, -770
5753, -15, 83, 1027, 2520, -140, -490
5773, 0, 72, 1027, 2520, -210, -70
5793, -4, 69, 1029, 2520, -350, 1190
5813, 0, 71, 1029, 2590, -280, 1750
5833, -21, 78, 1028, 2660, -420, -1190
5853, -27, 71, 1029, 2520, -490, -6510
5873, 12, 62, 1027, 2590, -70, -980
5893, 3, 69, 1028, 2590, -280, 2030
5913, -1, 59, 1027, 2590, -350, 2100
5933, -7, 73, 1033, 2730, 140, 840
5953, 5, 71, 1027, 2660, -140, -3780
5973, 11, 49, 1025, 2800, -140, -2590
5993, -4, 72, 1025, 3080, 420, 2660
6013, 19, 58, 1022, 3430, 910, 6300
6033, 7, 97, 1000, 3570, 2450, 11620
6053, -16, 85, 1023, 4270, 4900, 12250
6073, -18, 57, 1027, 3360, 3290, 6440
6093, -2, 67, 1031, 2450, 630, 1960
6113, -16, 62, 1029, 2590, -560, 3500
6133, 31, 111, 1022, 2590, -2310, 4060
6153, -28, 73, 1030, 2520, -3500, 3780
6173, 10, 78, 1029, 2590, -3080, 1120
6193, 5, 72, 1029, 2520, -1190, 420
6213, 0, 66, 1029, 2520, -630, 1400
6233, 6, 61, 1027, 2590, -280, 1890
6253, -1, 64, 1030, 2450, -490, 1960
6273, -3, 78, 1026, 2450, -420, 2870
6293, -3, 78, 1029, 2660, -70, 6720
6313, 3, 77, 1026, 2800, 280, 5950
6333, -20, 87, 1026, 2870, 420, 6300
6353, -3, 66, 1029, 3080, 700, 6650
6373, 18, 78, 1026, 3080, 630, 5460
6393, -18, 64, 1030, 2940, 4340, 4270
6413, -44, 49, 1039, 2730, 12180, 4900
6433, -25, 88, 1029, 2310, 15820, 4060
6453, 33, 113, 1036, 2660, 17220, 3430
6473, 8, 74, 1051, 4130, 18550, 910
6493, -58, 92, 1137, 8960, 28350, -6650
6513, -70, 91, 1061, 12040, 6510, -140
6533, -27, 123, 1110, 25410, -14350, 12320
6553, -40, 58, 1108, 32270, -21980, 17640
6573, -68, 35, 868, 43330, -30030, 21980
6593, 79, 160, 1153, 45220, -31850, 21210
6613, 19, 150, 1071, 23940, -5670, 14140
6633, 26, 82, 1049, 49210, -9800, 11900
6653, 9, 199, 1094, 37100, -16940, 23310
6673, 58, 162, 979, 39830, -11760, 24570
6693, 123, 180, 990, 39410, -23730, 32760
6713, 63, 199, 1044, 42490, -12880, 25410
6733, 49, 180, 1007, 48790, 1820, 14140
6753, 62, 233, 1038, 50330, -5110, 17080
6773, -2, 238, 980, 53200, -5880, 18340
6793, 96, 297, 929, 62090, -3500, 17430
6813, 95, 292, 860, 73010, -10990, 29820
6833, 79, 310, 784, 79240, -19040, 45990
6853, 77, 327, 818, 97790, -15750, 34090
6873, 53, 406, 815, 134330, -3430, 980
6893, 49, 480, 870, 164430, 17080, -19110
6913, 53, 580, 979, 157290, 42000, -31570
6933, 22, 584, 952, 165620, 54600, -27790
6953, 12, 693, 796, 214830, 45780, -17220
6973, -95, 669, 708, 273560, 26740, -560
6993, -66, 859, 494, 310100, 23170, 8470
7013, 34, 823, 666, 243950, 9940, 11620
7033, -26, 820, 610, 76160, 280, 3990
7053, 64, 898, 717, -8260, -14560, -10780
7073, -41, 798, 661, 8960, -29750, -5320
7093, -97, 729, 370, 31010, -30450, 10850
7113, 96, 788, 509, 32830, -8890, 21070
7133, 62, 817, 564, -9940, 28210, 20440
7153, -7, 850, 603, -22820, 50470, -5600
7173, -50, 880, 692, -26950, 44800, -12810
7193, -93, 826, 690, -18130, 28630, -9030
7213, -72, 858, 610, 15680, 14140, -2660
7233, -14, 729, 582, 45290, -5040, 20230
7253, 66, 783, 513, 65380, -14700, 29050
7273, 72, 992, 431, 124670, -22610, 24710
7293, 16, 961, 456, 173320, -19390, 8400
7313, -52, 804, 428, 88900, -5320, -3080
7333, -86, 773, 421, -21280, 6090, -1330
7353, -6, 905, 550, -21980, 17150, -14000
7373, 104, 968, 466, -31920, 23870, -19600
7393, -4, 846, 534, -8190, 6370, 140
7413, -77, 1036, 610, -27650, -4550, -28140
7433, -104, 839, 623, 35280, -27790, 17080
7453, 44, 664, 686, 156660, -51730, 63140
7473, 142, 968, 152, 427140, -59010, 62020
7493, 150, 1310, -280, 487550, -54110, 66500
7513, 85, 1091, 124, 190190, -15680, 70560
7533, 186, 906, 144, -48300, 1610, 70910
7553, 221, 870, 59, 21840, -3080, 80780
7573, 134, 896, 116, 2170, 3360, 43120
7593, 167, 919, 113, 2310, 630, 28140
7613, 198, 970, 113, -3850, -2030, 24290
7633, 177, 1030, 122, -3430, -1400, 5740
7653, 163, 975, 114, -70, 4130, 6510
7673, 203, 886, 97, 4200, 9170, 21280
7693, 229, 897, 81, 1190, 11200, 22470
7713, 194, 973, 103, -1610, 7350, 8120
7733, 220, 1052, 128, -7700, 1190, -2170
7753, 224, 1048, 117, -2660, -6160, 3710
7773, 146, 999, 150, -1750, -2240, 12530
7793, 162, 925, 135, -560, 8400, 18410
7813, 234, 939, 107, 1610, 9310, 29680
7833, 312, 958, 89, 2170, 6160, 32760
7853, 341, 1002, 92, 980, 1890, 23240
7873, 228, 1015, 150, -1750, -3780, 11690
7893, 128, 928, 177, -4200, 420, 2870
7913, 198, 978, 127, -6930, 3360, 1470
7933, 256, 934, 113, -5600, 9660, 17780
7953, 238, 931, 112, -2590, 10920, 20160
7973, 303, 912, 156, 1750, -8610, -3500
7993, 172, 911, 163, -4550, -12950, -17080
8013, 261, 860, 129, -20510, -23380, -42210
8033, 253, 1094, 106, -23870, -32760, -84490
8053, 105, 1183, 168, -31150, -11550, -98210
8073, 230, 1005, 161, -14210, 9870, -12180
8093, 171, 979, 171, 70, 14700, 30030
8113, 183, 1017, 158, -280, 10430, -3220
8133, 193, 969, 148, 3780, 7560, -350
8153, 143, 1021, 166, 5810, 3850, -6300
8173, 150, 891, 153, 5110, -1470, -23450
8193, 144, 965, 173, -3360, -3010, -22190
8213, 113, 968, 205, -9940, -3220, -27580
8233, 189, 1138, 135, -8400, -4970, -22400
8253, 66, 1033, 212, -770, -6440, -28350
8273, 105, 984, 182, 6790, -1890, -3010
8293, 104, 953, 184, 8890, 70, 11480
8313, 127, 962, 130, 6440, -2310, 6090
8333, 124, 954, 176, 4830, -5250, -3430
8353, 206, 1106, 87, 1890, -11060, -4970
8373, 98, 1195, 211, 2310, -9660, -5880
8393, 58, 771, 214, 980, -6090, -700
8413, 140, 841, 215, 14140, -630, 29120
8433, 195, 1287, 87, 4270, 4620, 22400
8453, 65, 641, 174, 4550, -3010, 2800
8473, 211, 1053, 127, 2870, -3290, 5040
8493, 128, 915, 212, -280, -4550, -17640
8513, 133, 863, 204, -2030, -2520, -8330
8533, 165, 1128, 160, 4270, -1610, -5600
8553, 96, 884, 236, 2170, 490, -280
8573, 194, 954, 111, 6790, 3010, 23450
8593, 169, 955, 157, 10080, 2870, 26880
8613, 115, 1022, 173, 3990, 1400, 16100
8633, 64, 706, 228, 7280, -4200, 140
8653, 194, 1063, 142, 3710, -4550, 10990
8673, 73, 858, 204, 6930, -6580, -1330
8693, 243, 955, 27, 8190, -5180, 13650
8713, 176, 916, 148, 14560, -280, 21210
8733, 205, 1234, 92, -1680, 2730, -840
8753, 141, 790, 215, -490, -2590, -8610
8773, 158, 1108, 125, 1750, -4200, -7980
8793, 68, 908, 289, -2940, -3010, -6230
8813, 103, 920, 160, 0, -5600, -9450
8833, 157, 1117, 94, 2310, -2310, 9030
8853, 127, 1102, 138, 9520, -3710, 7840
8873, 202, 976, 115, 8050, -3360, 13020
8893, 142, 896, 169, 11690, -2660, 18550
8913, 227, 1005, 124, 10570, -1540, 6720
8933, 149, 905, 201, 6160, 1890, 11130
8953, 150, 997, 231, 5880, -3080, -840
8973, 158, 1076, 127, 6230, -6510, -4130
8993, 115, 1013, 132, 14070, -7840, 10290
9013, 131, 874, 101, 17430, -5600, 17640
9033, 233, 998, 113, 14280, -560, 20230
9053, 189, 953, 156, 15330, 1400, 15260
9073, 180, 982, 97, 5040, 1330, 10640
9093, 180, 949, 114, 9450, 210, 7560
9113, 201, 935, 110, 10780, 5320, 10010
9133, 220, 972, 85, 10010, 10150, 13580
9153, 253, 969, 100, 11130, 14420, 12040
9173, 230, 977, 105, 8400, 15750, 19040
9193, 182, 966, 112, 8330, 12880, 21560
9213, 174, 962, 116, 11060, 7700, 17220
9233, 213, 1001, 118, 9030, 4970, 16520
9253, 251, 980, 98, 10920, 5530, 8540
9273, 285, 975, 83, 10920, 10430, 8750
9293, 228, 984, 105, 7770, 6440, -4900
9313, 168, 982, 126, 3150, 3850, -12810
9333, 195, 976, 107, 3710, 3290, -3290
9353, 226, 978, 102, 6160, 1610, 8190
9373, 239, 976, 91, 6020, 4060, 21700
9393, 289, 988, 77, 5180, 6230, 36960
9413, 280, 990, 91, 5250, 8330, 42420
9433, 252, 990, 116, 5250, 16030, 52010
9453, 254, 922, 112, 5530, 19390, 51310
9473, 287, 942, 66, 5320, 17150, 26250
9493, 305, 877, 71, 7280, 9870, 13090
9513, 329, 946, 81, 910, 8260, 23310
9533, 297, 963, 105, -1890, 5670, 17640
9553, 322, 990, 111, -2660, 5600, 12460
9573, 318, 984, 103, 350, 6650, 12250
9593, 312, 953, 101, 3780, 4900, 10220
9613, 346, 950, 80, 5320, 5180, 17500
9633, 368, 929, 82, 6020, 8750, 40250
9653, 354, 941, 110, 3920, 11760, 44380
9673, 377, 942, 115, 1820, 16940, 55020
9693, 391, 910, 129, 2520, 18060, 70490
9713, 374, 910, 139, 2870, 13440, 60760
9733, 387, 921, 143, 1680, 7700, 38220
9753, 409, 916, 130, 3990, 2310, 27510
9773, 465, 901, 97, 9870, -2030, 24430
9793, 441, 869, 99, 11480, -280, 31220
9813, 441, 839, 106, 9380, 7280, 48020
9833, 473, 847, 121, 5810, 10990, 47740
9853, 494, 884, 137, 770, 11200, 36820
9873, 440, 891, 142, 280, 7840, 27860
9893, 432, 852, 133, 3080, 490, 12810
9913, 503, 820, 103, 6370, -2170, 17010
9933, 478, 863, 119, 5320, -2520, 16450
9953, 531, 911, 111, 2590, -9380, -420
9973, 506, 897, 118, 3360, -11760, 9380
9993, 481, 870, 102, 5880, -10290, 14980
10013, 516, 858, 80, 7980, -14840, 11760
10033, 527, 873, 92, 2030, -13580, 10570
10053, 501, 871, 102, -10430, -8820, 7770
10073, 539, 859, 111, -18270, -5530, 3920
10093, 510, 831, 109, -20580, -5040, 6090
10113, 500, 824, 114, -18620, -7210, -1890
10133, 540, 856, 111, -21070, -11900, -10780
10153, 528, 918, 126, -28140, -15260, -21140
10173, 484, 888, 153, -41230, -9800, -17010
10193, 457, 833, 188, -60130, 4410, 6300
10213, 490, 791, 220, -69930, 12810, 26040
10233, 521, 818, 238, -58940, 11410, 26740
10253, 550, 874, 228, -29050, 3640, 14140
10273, 504, 852, 208, 4900, -8050, 6090
10293, 511, 827, 183, 23030, -13300, 9100
10313, 528, 842, 180, 19250, -11690, 11410
10333, 518, 836, 205, 6440, -5250, 13440
10353, 519, 846, 207, -5320, -630, 6790
10373, 534, 826, 189, -1470, -3290, 1610
10393, 564, 849, 178, 8610, -6370, 5180
10413, 522, 840, 200, 7070, -6300, 3430
10433, 476, 817, 207, -2030, -4690, -840
10453, 525, 830, 203, -4340, -5390, 2030
10473, 549, 852, 195, 1470, -3710, 4340
10493, 524, 833, 198, 2310, -5110, -700
10513, 535, 850, 191, 2520, -6440, -2030
10533, 527, 847, 192, 4130, -6510, -3500
10553, 512, 828, 189, 1190, -6020, -6580
10573, 540, 815, 181, -1540, -4830, -490
10593, 508, 824, 176, -1120, -4760, 5950
10613, 514, 823, 186, -1680, -7070, 4480
10633, 509, 814, 197, -7770, -8820, 3220
10653, 589, 861, 144, -16310, -6510, 1750
10673, 518, 864, 181, -20230, -6230, -4340
10693, 516, 837, 129, -1050, 7280, 9590
10713, 531, 814, 67, 27090, 32690, 28210
10733, 591, 818, 18, 80640, 24290, 48230
10753, 598, 792, 4, 126490, 0, 67690
10773, 565, 773, 38, 108990, 47740, 59290
10793, 569, 820, 56, 68600, 129990, 19320
10813, 593, 875, 54, 66640, 163380, -22820
10833, 589, 889, 62, 94570, 156450, -32690
10853, 575, 860, 59, 120190, 147700, -9170
10873, 585, 825, 30, 147910, 132090, 38640
10893, 580, 782, 16, 166530, 121800, 82460
10913, 554, 781, 48, 153020, 149590, 80710
10933, 554, 852, 74, 121800, 203840, 23030
10953, 586, 913, 69, 122430, 221130, -37240
10973, 612, 920, 46, 158410, 187320, -30800
10993, 605, 876, 37, 185570, 152390, 30800
11013, 580, 832, 44, 177800, 157850, 84700
11033, 557, 809, 61, 148960, 190260, 87990
11053, 543, 802, 68, 127540, 206920, 15750
11073, 549, 821, 65, 144690, 182140, -4060
11093, 562, 845, 61, 158340, 158340, 5530
11113, 571, 846, 56, 150920, 150290, 42700
11133, 569, 819, 55, 124250, 158550, 79520
11153, 566, 798, 61, 96250, 171290, 76790
11173, 566, 816, 78, 84910, 170660, 28700
11193, 570, 862, 85, 94080, 146580, -20440
11213, 581, 876, 76, 109270, 107800, -21140
11233, 585, 853, 60, 105910, 82740, 20860
11253, 568, 805, 58, 75880, 87360, 57120
11273, 539, 766, 75, 38290, 103460, 57330
11293, 523, 749, 89, 18060, 101360, 31640
11313, 529, 756, 92, 23310, 69720, 2450
11333, 556, 802, 80, 42350, 21350, -23450
11353, 594, 863, 66, 50960, -16030, -37730
11373, 610, 887, 60, 29470, -20510, -23870
11393, 587, 852, 74, -13160, -1610, 12390
11413, 564, 802, 87, -44240, 5740, 34930
11433, 553, 785, 87, -42630, -19390, 16660
11453, 559, 802, 76, -23730, -60410, -26530
11473, 566, 822, 67, -15050, -90510, -53830
11493, 574, 829, 59, -27930, -98560, -48440
11513, 567, 820, 65, -55020, -90510, -26600
11533, 556, 800, 69, -80990, -81410, -4690
11553, 550, 776, 75, -90720, -86660, 6370
11573, 564, 797, 67, -81200, -108640, -8050
11593, 596, 856, 57, -64680, -134190, -49630
11613, 616, 911, 52, -62720, -141750, -85050
11633, 611, 908, 57, -80780, -127890, -76090
11653, 582, 847, 62, -101150, -112140, -26530
11673, 559, 787, 60, -105700, -111020, 16730
11693, 558, 771, 56, -94710, -120400, 16730
11713, 574, 805, 51, -79940, -127960, -20720
11733, 598, 861, 50, -73570, -124460, -61390
11753, 607, 885, 53, -77840, -110950, -72100
11773, 597, 871, 58, -85820, -94920, -48230
11793, 578, 831, 61, -86100, -86100, -8960
11813, 573, 793, 52, -72170, -89810, 21490
11833, 576, 781, 40, -53130, -95340, 23590
11853, 577, 795, 41, -44730, -84490, -5530
11873, 573, 812, 53, -49280, -57120, -40040
11893, 568, 820, 61, -52780, -33670, -46900
11913, 570, 815, 62, -44170, -28140, -21560
11933, 575, 805, 53, -23870, -36820, 13090
11953, 579, 795, 43, -3850, -41650, 32130
11973, 582, 788, 42, 6230, -31290, 28560
11993, 579, 800, 47, 6090, -7280, 8750
12013, 578, 820, 56, 3150, 19880, -16450
12033, 580, 842, 64, 8190, 35700, -26250
12053, 588, 846, 59, 23870, 35000, -6860
12073, 598, 835, 48, 43750, 26530, 30450
12093, 604, 828, 43, 55720, 28700, 53410
12113, 601, 838, 51, 55930, 47530, 40810
12133, 597, 855, 57, 52430, 71470, 9450
12153, 591, 852, 61, 55160, 84770, -7840
12173, 579, 835, 60, 63210, 87290, 1610
12193, 567, 812, 61, 71330, 85750, 24780
12213, 562, 794, 60, 77420, 83300, 47880
12233, 567, 786, 55, 80080, 82950, 60900
12253, 574, 800, 57, 79100, 86940, 53620
12273, 584, 837, 61, 76860, 93660, 25270
12293, 595, 873, 68, 75320, 98700, -4480
12313, 605, 889, 67, 75530, 97440, -8610
12333, 600, 874, 63, 75740, 91210, 14630
12353, 587, 837, 63, 71820, 87220, 45080
12373, 574, 807, 66, 64260, 87080, 58940
12393, 565, 795, 70, 57610, 86660, 46690
12413, 565, 810, 70, 55580, 81060, 17710
12433, 564, 821, 70, 55090, 71540, -7840
12453, 559, 811, 71, 51730, 61670, -10850
12473, 546, 779, 72, 42560, 54530, 11550
12493, 539, 750, 72, 30730, 48510, 40110
12513, 548, 759, 72, 22750, 39200, 47180
12533, 563, 792, 70, 20650, 25620, 24640
12553, 581, 828, 71, 18970, 12950, -8400
12573, 593, 864, 75, 11970, 5740, -28770
12593, 602, 881, 75, 2730, -210, -30450
12613, 598, 869, 73, -4760, -9100, -15610
12633, 588, 837, 71, -12110, -18550, 11480
12653, 582, 809, 68, -18480, -27230, 33040
12673, 581, 819, 66, -20370, -36890, 23870
12693, 581, 835, 66, -22330, -43330, -12880
12713, 573, 832, 73, -29540, -44030, -40320
12733, 565, 819, 73, -38920, -44590, -37380
12753, 561, 799, 68, -43680, -51940, -14910
12773, 564, 787, 63, -41510, -66290, 8610
12793, 572, 793, 56, -38710, -77910, 17010
12813, 585, 817, 57, -40110, -80360, 3780
12833, 593, 850, 62, -46900, -73290, -25690
12853, 588, 865, 70, -55440, -59570, -53760
12873, 577, 837, 67, -53270, -68320, -24080
12893, 565, 794, 57, -42910, -81480, 11130
12913, 561, 766, 51, -37170, -85260, 18270
12933, 559, 768, 51, -40670, -74130, -3710
12953, 565, 789, 55, -47810, -57750, -30660
12973, 573, 814, 61, -51310, -46690, -44100
12993, 580, 833, 62, -48300, -43330, -41300
13013, 585, 841, 64, -37800, -47600, -25480
13033, 593, 840, 59, -24640, -54110, -4130
13053, 603, 839, 48, -15120, -55230, 8330
13073, 617, 852, 45, -15260, -42630, 840
13093, 614, 867, 54, -24080, -17640, -18620
13113, 603, 865, 65, -29120, 3220, -28910
13133, 585, 842, 68, -19390, 4550, -18900
13153, 569, 808, 60, 70, -7700, 4760
13173, 557, 769, 49, 15050, -15540, 24430
13193, 545, 745, 50, 15820, -6160, 27580
13213, 542, 742, 57, 8610, 12810, 15260
13233, 554, 773, 63, 5390, 26180, -5390
13253, 573, 817, 62, 11130, 27650, -20020
13273, 591, 849, 58, 20020, 23940, -15260
13293, 596, 846, 60, 24990, 24990, 7630
13313, 595, 837, 61, 27440, 29400, 27790
13333, 602, 843, 56, 31010, 32550, 26950
13353, 607, 855, 55, 33670, 37310, 11760
13373, 597, 854, 60, 31080, 48020, 210
13393, 586, 836, 66, 28980, 56770, 4690
13413, 578, 828, 66, 34090, 54110, 15190
13433, 583, 826, 60, 42700, 44870, 21630
13453, 586, 824, 55, 46200, 40810, 27720
13473, 583, 821, 63, 39760, 48090, 29750
13493, 575, 816, 66, 32060, 57190, 20720
13513, 566, 812, 70, 31780, 56280, 8260
13533, 559, 796, 65, 35910, 47320, 9590
13553, 550, 774, 64, 37800, 38500, 21630
13573, 550, 773, 64, 33530, 37100, 26460
13593, 556, 786, 65, 27580, 37590, 22260
13613, 570, 807, 69, 22050, 36680, 17290
13633, 590, 834, 69, 18760, 33040, 11270
13653, 604, 866, 69, 20650, 25270, 1750
13673, 614, 887, 69, 23310, 17780, -4900
13693, 611, 877, 65, 23100, 12040, 1750
13713, 595, 848, 62, 18340, 10290, 17990
13733, 576, 811, 66, 9380, 13860, 27580
13753, 561, 794, 70, 1050, 18200, 23520
13773, 562, 798, 70, 1120, 12670, 8890
13793, 574, 813, 65, 8260, -2170, -2870
13813, 581, 824, 62, 12600, -15400, -4550
13833, 581, 819, 63, 4970, -14630, -350
13853, 568, 807, 70, -8050, -6370, 3920
13873, 563, 798, 70, -15260, -4760, 6720
13893, 572, 802, 67, -12740, -14840, 6230
13913, 586, 826, 63, -6650, -27230, -2800
13933, 592, 848, 62, -5530, -31500, -18340
13953, 586, 841, 66, -11200, -28000, -23170
13973, 569, 808, 66, -18970, -23870, -8890
13993, 550, 772, 64, -21700, -25970, 10570
14013, 549, 762, 63, -18830, -32480, 16310
14033, 559, 779, 61, -16100, -36610, 2100
14053, 575, 815, 59, -16170, -35980, -18410
14073, 598, 852, 63, -17570, -34230, -29540
14093, 613, 881, 64, -19530, -32130, -28630
14113, 617, 886, 59, -19950, -30940, -19110
14133, 608, 860, 59, -17990, -31290, -3220
14153, 597, 833, 59, -16450, -29610, 8960
14173, 591, 825, 58, -14700, -26040, 3780
14193, 585, 834, 60, -12600, -21140, -15680
14213, 580, 830, 63, -12180, -15470, -27930
14233, 570, 806, 60, -12390, -11830, -16380
14253, 561, 783, 61, -11550, -10850, 5600
14273, 557, 773, 59, -9520, -9730, 13790
14293, 555, 776, 61, -6160, -8190, 4340
14313, 561, 785, 59, -1960, -8050, -6510
14333, 576, 808, 56, 1540, -8260, -10570
14353, 589, 840, 62, 2030, -4970, -14700
14373, 600, 859, 65, 140, 1470, -16940
14393, 597, 846, 63, 140, 5040, -5180
14413, 591, 824, 59, 2520, 5040, 14630
14433, 584, 816, 59, 6650, 4760, 18900
14453, 579, 822, 61, 9800, 7980, 2450
14473, 574, 816, 62, 10430, 13160, -12040
14493, 571, 807, 64, 9240, 17010, -6230
14513, 573, 807, 63, 8680, 18340, 8330
14533, 583, 824, 64, 10150, 17990, 14840
14553, 591, 837, 62, 13160, 16450, 12040
14573, 594, 841, 61, 15260, 16030, 7770
14593, 587, 832, 63, 15470, 17920, 5040
14613, 573, 816, 66, 13650, 22120, 2800
14633, 567, 803, 66, 12740, 23870, 5110
14653, 565, 796, 63, 14350, 20440, 14000
14673, 572, 803, 61, 15190, 16310, 17360
14693, 583, 823, 63, 14140, 16870, 9800
14713, 595, 848, 64, 13160, 17150, 1680
14733, 598, 857, 65, 12880, 16310, -1960
14753, 594, 849, 63, 12040, 15750, 3080
14773, 578, 823, 68, 10150, 15190, 14770
14793, 564, 796, 66, 9800, 12320, 23240
14813, 561, 784, 64, 10570, 8260, 21000
14833, 560, 782, 61, 9800, 6230, 11550
14853, 564, 796, 65, 6300, 7630, 1400
14873, 575, 818, 68, 4620, 6510, -4620
14893, 589, 841, 66, 5740, 1400, -3990
14913, 596, 853, 65, 6720, -3850, 3080
14933, 591, 834, 64, 4690, -4760, 14560
14953, 582, 817, 65, 1120, -2800, 18060
14973, 574, 811, 66, -280, -1960, 6440
14993, 576, 819, 64, 980, -4480, -6650
15013, 574, 813, 65, 1120, -7070, -4410
15033, 574, 808, 66, -1120, -7700, 5460
15053, 575, 810, 63, -1610, -9170, 7140
15073, 582, 822, 63, -490, -11410, 2450
15093, 585, 824, 63, -1120, -11830, 1610
15113, 586, 825, 63, -3150, -9730, 1330
15133, 593, 842, 64, -2520, -9240, -7630
15153, 595, 851, 65, -1190, -9520, -15330
15173, 588, 837, 64, -1750, -9240, -7980
15193, 578, 810, 63, -2240, -9100, 7630
15213, 566, 790, 61, -1470, -9240, 10150
15233, 555, 783, 63, -1260, -8050, 210
15253, 560, 785, 63, -910, -7420, -6510
15273, 572, 800, 61, -420, -7630, -10010
15293, 584, 830, 63, 280, -7700, -17850
15313, 592, 851, 64, 630, -6930, -19950
15333, 595, 844, 63, 1190, -7280, -5180
15353, 595, 835, 60, 2870, -9100, 10220
15373, 598, 840, 59, 4900, -9170, 4620
15393, 588, 838, 63, 3640, -3640, -10850
15413, 573, 814, 66, -1120, 4550, -11970
15433, 565, 793, 66, -1470, 5250, 140
15453, 562, 789, 61, 4130, -1400, 7000
15473, 564, 792, 59, 8400, -6160, 5110
15493, 566, 793, 61, 5880, -2660, 5390
15513, 567, 790, 61, 840, 3500, 8050
15533, 569, 801, 63, -980, 6440, 3010
15553, 575, 821, 64, 840, 5880, -9170
15573, 579, 829, 63, 4690, 2520, -9170
15593, 583, 822, 61, 7140, -910, 7070
15613, 591, 828, 60, 7840, -1680, 19250
15633, 608, 862, 61, 8680, 420, 12740
15653, 627, 895, 64, 10570, 3430, 490
15673, 643, 926, 64, 14210, 4900, -3710
15693, 648, 934, 60, 21770, 2170, -3570
15713, 625, 895, 56, 29260, 70, 3010
15733, 589, 830, 57, 26670, 9030, 16660
15753, 557, 769, 58, 22050, 21000, 28700
15773, 540, 752, 63, 24780, 25830, 23520
15793, 542, 761, 60, 33180, 24010, 4340
15813, 555, 771, 53, 44100, 18130, -3780
15833, 571, 789, 50, 48720, 19460, 2590
15853, 596, 829, 55, 46480, 31220, 4340
15873, 625, 900, 58, 46410, 44520, -10710
15893, 641, 936, 54, 53340, 51800, -25690
15913, 628, 893, 47, 64050, 54670, -8610
15933, 576, 807, 47, 71260, 63070, 25410
15953, 524, 726, 53, 77070, 78400, 38010
15973, 489, 663, 43, 90720, 85890, 32270
15993, 464, 613, 42, 104720, 88760, 25760
16013, 461, 604, 37, 109340, 101430, 18480
16033, 476, 639, 41, 114870, 115850, 3080
16053, 525, 736, 48, 120120, 132790, -14070
16073, 611, 872, 40, 126350, 147070, -21350
16093, 715, 1040, 14, 140560, 151620, -17500
16113, 752, 1119, 12, 152600, 165620, -11830
16133, 690, 1037, 33, 142940, 211050, -2730
16153, 599, 907, 52, 125650, 262990, 9100
16173, 557, 821, 35, 137970, 276360, 9800
16193, 521, 752, 25, 174440, 254800, 5390
16213, 496, 707, 32, 183400, 255290, 6650
16233, 498, 713, 51, 168630, 279020, -1680
16253, 546, 805, 52, 163730, 291760, -33670
16273, 626, 959, 46, 176960, 280630, -87360
16293, 693, 1097, 45, 192360, 263830, -135450
16313, 720, 1151, 53, 198800, 257810, -148820
16333, 677, 1064, 67, 197190, 257740, -116200
16353, 600, 921, 74, 187670, 254660, -59990
16373, 530, 786, 81, 180320, 238840, -19110
16393, 486, 706, 91, 180320, 210140, -5110
16413, 483, 703, 89, 183050, 172550, -20020
16433, 521, 757, 78, 190120, 123200, -53130
16453, 576, 842, 68, 192220, 73500, -82390
16473, 605, 899, 74, 168630, 47740, -95690
16493, 597, 906, 112, 57470, 62580, -57400
16513, 582, 889, 129, 32900, 29960, -21560
16533, 592, 878, 101, 43540, -48370, 210
16553, 583, 831, 67, 42770, -113470, -3220
16573, 530, 764, 69, -6090, -119070, -18270
16593, 475, 706, 91, -72030, -104790, -23030
16613, 450, 685, 98, -114170, -121590, -10990
16633, 477, 717, 77, -131320, -170730, 6930
16653, 527, 775, 58, -150990, -212380, 12670
16673, 564, 848, 60, -185990, -223720, -3290
16693, 580, 924, 91, -216720, -229600, -25200
16713, 632, 1054, 81, -209160, -278110, -33950
16733, 734, 1221, 16, -179270, -351330, -12040
16753, 726, 1185, 15, -196770, -360430, 63000
16773, 646, 1042, 56, -247380, -318150, 139930
16793, 607, 960, 63, -246260, -322420, 139930
16813, 635, 1010, 36, -195720, -375830, 84630
16833, 676, 1078, 28, -168840, -402570, 44940
16853, 689, 1104, 41, -173600, -390460, 45710
16873, 655, 1064, 51, -172200, -376950, 56210
16893, 607, 948, 46, -148330, -383810, 78960
16913, 593, 873, 30, -109130, -402080, 88760
16933, 618, 899, 16, -76650, -406000, 47880
16953, 651, 980, 32, -73080, -375760, -13300
16973, 659, 1013, 54, -82250, -335020, -38150
16993, 665, 1000, 49, -65660, -322280, -20440
17013, 690, 982, 16, -15610, -339780, -1260
17033, 698, 981, 5, 20230, -333200, -17920
17053, 676, 968, 23, 12950, -275380, -59500
17073, 637, 921, 44, -3430, -208110, -76720
17093, 608, 866, 44, 5390, -171570, -60830
17113, 595, 819, 30, 39900, -164220, -42000
17133, 594, 802, 20, 73080, -152670, -41160
17153, 597, 803, 11, 88270, -119210, -52290
17173, 585, 800, 23, 85540, -65030, -61950
17193, 564, 792, 35, 78610, -6720, -62930
17213, 549, 765, 30, 89880, 29120, -43470
17233, 530, 721, 23, 111650, 50400, -8610
17253, 498, 666, 21, 128030, 77210, 20300
17273, 470, 627, 19, 138250, 112000, 31780
17293, 454, 605, 12, 146440, 146580, 26390
17313, 441, 594, 8, 149450, 182070, 17010
17333, 425, 584, 12, 144620, 222250, 13510
17353, 413, 583, 26, 138180, 260960, 15890
17373, 418, 600, 33, 136780, 289520, 23310
17393, 453, 631, 25, 146020, 298410, 34020
17413, 512, 695, 5, 158830, 297920, 29750
17433, 567, 801, -5, 157570, 316680, -10220
17453, 630, 953, 4, 143850, 356860, -77350
17473, 688, 1111, 33, 131810, 400260, -133630
17493, 745, 1208, 34, 138460, 417480, -146650
17513, 760, 1207, 24, 165480, 399700, -123410
17533, 714, 1099, 25, 184800, 381850, -98350
17553, 652, 1015, 57, 181720, 385070, -101360
17573, 651, 1050, 74, 183540, 381150, -151620
17593, 736, 1199, 57, 219940, 333550, -213220
17613, 837, 1363, 44, 258090, 274120, -240380
17633, 912, 1498, 65, 257320, 252140, -225890
17653, 909, 1499, 84, 235970, 251230, -200410
17673, 818, 1344, 101, 229250, 229180, -181790
17693, 738, 1185, 105, 236740, 180950, -159460
17713, 716, 1108, 86, 246890, 116760, -131530
17733, 727, 1099, 78, 246890, 54530, -110810
17753, 733, 1130, 104, 210630, 28210, -106890
17773, 743, 1195, 126, 148960, 26600, -126840
17793, 720, 1173, 122, 108920, -5040, -150080
17813, 667, 1055, 104, 95130, -75880, -133350
17833, 600, 920, 87, 73570, -147140, -82180
17853, 540, 805, 84, 24220, -186760, -35980
17873, 484, 720, 84, -38710, -202790, -18060
17893, 444, 683, 85, -99190, -216160, -31570
17913, 408, 666, 89, -154070, -236530, -62510
17933, 373, 646, 87, -202580, -267610, -86660
17953, 352, 637, 70, -239820, -314230, -89040
17973, 351, 650, 47, -262500, -376390, -75110
17993, 359, 671, 26, -279440, -437080, -54460
18013, 354, 671, 19, -302960, -476560, -28560
18033, 341, 655, 21, -333270, -493080, 5810
18053, 351, 656, 17, -355670, -505120, 38010
18073, 399, 714, 9, -353710, -533400, 44100
18093, 481, 855, 8, -333480, -568260, 9590
18113, 573, 1037, 9, -310590, -592830, -55090
18133, 666, 1239, 0, -286020, -612430, -122220
18153, 732, 1345, -30, -252210, -639660, -168980
18173, 759, 1276, -61, -213290, -669480, -173180
18193, 769, 1189, -62, -192150, -666610, -127890
18213, 757, 1157, -25, -210840, -599340, -104510
18233, 741, 1192, 19, -255850, -490210, -154350
18253, 797, 1274, -3, -276010, -406070, -234780
18273, 887, 1398, -23, -238210, -388780, -283570
18293, 964, 1544, -5, -202230, -369670, -300020
18313, 1037, 1637, -19, -189980, -248010, -257600
18333, 1055, 1553, -64, -172480, -189700, -175630
18353, 898, 1261, -14, -183400, -83510, -131460
18373, 786, 1116, 11, -174650, 6510, -175560
18393, 781, 1138, 1, -117250, 37450, -233310
18413, 793, 1169, -5, -63840, 69090, -231140
18433, 779, 1133, 9, -25830, 120050, -172410
18453, 778, 1106, -13, 26320, 157290, -127680
18473, 741, 1056, -30, 77420, 198870, -129360
18493, 649, 968, -15, 101570, 273210, -146790
18513, 551, 855, 14, 131600, 336070, -135030
18533, 496, 774, 5, 194110, 347340, -94500
18553, 445, 674, -14, 257740, 342860, -40530
18573, 393, 600, -20, 289730, 365820, -840
18593, 341, 544, -12, 301770, 405930, 15750
18613, 310, 522, -8, 316610, 435120, 24150
18633, 292, 502, -5, 343700, 439320, 37800
18653, 288, 490, -22, 371770, 433720, 60760
18673, 270, 472, -31, 385070, 442820, 83650
18693, 254, 451, -34, 379750, 472570, 97720
18713, 247, 439, -30, 367360, 504490, 94780
18733, 248, 432, -18, 355180, 528150, 71890
18753, 273, 467, -11, 350910, 537880, 25900
18773, 341, 573, -14, 362040, 530110, -38430
18793, 452, 754, -33, 383320, 515270, -108360
18813, 597, 1030, -39, 396830, 515900, -170940
18833, 767, 1379, -25, 396550, 539000, -213990
18853, 898, 1643, -28, 398650, 558250, -228130
18873, 815, 1511, -7, 410410, 556710, -199780
18893, 644, 1203, 48, 414260, 552860, -120400
18913, 562, 1020, 93, 429730, 515060, -34650
18933, 621, 1024, 69, 477960, 413840, 1260
18953, 758, 1211, 37, 526820, 303030, -24010
18973, 980, 1666, 21, 532560, 247170, -110880
18993, 1204, 1997, -3, 507780, 230020, -202160
19013, 1066, 1918, 50, 459900, 233170, -138040
19033, 798, 1403, 158, 360850, 278250, 101920
19053, 745, 1168, 162, 301420, 254590, 267470
19073, 802, 1177, 96, 342510, 113960, 251300
19093, 865, 1312, 67, 369250, -5390, 120820
19113, 883, 1446, 101, 294700, -23730, -4340
19133, 832, 1436, 157, 170030, 280, 1540
19153, 770, 1271, 159, 82810, -29050, 138460
19173, 699, 1038, 124, 55720, -129500, 252350
19193, 636, 926, 85, 50330, -239190, 212380
19213, 574, 892, 72, 19390, -308630, 78050
19233, 475, 808, 88, -60270, -327390, -4060
19253, 379, 691, 101, -159110, -333620, 19950
19273, 315, 593, 76, -233240, -376600, 86310
19293, 307, 551, 27, -270200, -459690, 114310
19313, 329, 579, -12, -297150, -535500, 70770
19333, 339, 640, -15, -350630, -557830, -23800
19353, 305, 683, 11, -435680, -531370, -112280
19373, 237, 683, 28, -518210, -510440, -140350
19393, 166, 644, 12, -559510, -549010, -97510
19413, 164, 628, -44, -546630, -657090, -20790
19433, 236, 678, -98, -507360, -777980, 30730
19453, 345, 811, -104, -485940, -840630, 23100
19473, 404, 949, -62, -499030, -829430, -33250
19493, 441, 1072, -32, -514990, -799330, -88410
19513, 530, 1200, -85, -487480, -822920, -108920
19533, 711, 1387, -185, -412860, -903630, -120820
19553, 801, 1521, -165, -360010, -944650, -186620
19573, 675, 1373, -64, -414610, -848330, -281750
19593, 611, 1189, -95, -497630, -715540, -282310
19613, 721, 1191, -172, -479850, -699930, -207340
19633, 868, 1348, -153, -455490, -681170, -186340
19653, 970, 1625, -26, -522340, -532770, -241500
19673, 1158, 1997, -64, -577920, -378280, -304710
19693, 1200, 1992, -161, -488460, -381710, -307510
19713, 970, 1491, -132, -382830, -393750, -161210
19733, 877, 1234, -113, -394520, -263130, 46340
19753, 853, 1179, -68, -415520, -122780, 119140
19773, 816, 1146, -3, -404250, -16520, 62510
19793, 860, 1234, -23, -338030, 38360, -17500
19813, 937, 1390, -82, -211610, 26670, -81550
19833, 864, 1306, -88, -112560, 44660, -74690
19853, 701, 986, -43, -101500, 161980, 52010
19873, 584, 729, -8, -108080, 288610, 181160
19893, 518, 669, -11, -57400, 338380, 150500
19913, 468, 676, -21, 39200, 335860, 11130
19933, 417, 628, -21, 122220, 340830, -76650
19953, 350, 538, -10, 166180, 369950, -51520
19973, 297, 448, 3, 185430, 406420, 29400
19993, 267, 398, 15, 202440, 430920, 89390
20013, 258, 393, 19, 235200, 430220, 98140
20033, 258, 409, 17, 280840, 410270, 74060
20053, 263, 430, 21, 324660, 384160, 48020
20073, 264, 440, 24, 351750, 364420, 44030
20093, 282, 455, 14, 361830, 349510, 68810
20113, 311, 470, -12, 360990, 337820, 112000
20133, 353, 501, -49, 325290, 383250, 175000
20153, 399, 574, -60, 291970, 457870, 149520
20173, 507, 795, -38, 274820, 533820, 77000
20193, 764, 1318, -50, 302750, 566510, -6230
20213, 1095, 1894, -152, 352730, 571200, -20580
20233, 1036, 1770, -200, 334040, 643090, 29610
20253, 673, 1268, -118, 241220, 785890, 6650
20273, 475, 982, -38, 209300, 844690, -53760
20293, 447, 889, 10, 257880, 786240, -71680
20313, 564, 991, -6, 349020, 662760, -92120
20333, 803, 1331, -60, 425180, 558880, -161000
20353, 1080, 1934, -90, 444640, 532630, -296310
20373, 1142, 1997, -87, 440580, 550620, -414610
20393, 880, 1720, -10, 444570, 561540, -333410
20413, 694, 1291, 62, 437360, 559720, -98910
20433, 633, 1091, 105, 447860, 489790, 49420
20453, 705, 1134, 70, 490770, 360360, 41020
20473, 809, 1336, 48, 526260, 236040, -64540
20493, 971, 1613, -4, 515410, 154910, -161420
20513, 921, 1534, 43, 417480, 168280, -122990
20533, 749, 1259, 129, 269990, 233380, 32480
20553, 610, 998, 189, 178780, 210910, 151130
20573, 543, 815, 164, 175140, 72170, 185290
20593, 512, 686, 96, 197120, -90160, 158690
20613, 478, 632, 69, 160930, -173110, 93590
20633, 448, 609, 72, 62650, -172760, 25480
20653, 396, 590, 107, -55930, -144200, -11550
20673, 334, 557, 131, -160930, -140420, -7910
20693, 290, 523, 123, -228340, -200410, 21770
20713, 267, 493, 82, -264600, -305900, 45990
20733, 280, 499, 29, -293510, -410200, 41370
20753, 319, 552, -1, -338380, -470260, 770
20773, 353, 646, -4, -407610, -473970, -57540
20793, 356, 740, 15, -482930, -453460, -90510
20813, 311, 796, 45, -532980, -459130, -57470
20833, 304, 811, 21, -527170, -540050, 39760
20853, 427, 894, -54, -464030, -683340, 136150
20873, 663, 1192, -107, -392630, -796250, 138460
20893, 810, 1563, -45, -383390, -799400, 33110
20913, 765, 1652, 14, -415450, -746200, -57400
20933, 696, 1348, -98, -362460, -794500, -9380
20953, 709, 1132, -181, -235480, -902440, 79380
20973, 675, 1059, -110, -213570, -856520, 19810
20993, 634, 1105, -1, -297850, -685720, -128800
21013, 740, 1305, -8, -330750, -591430, -233940
21033, 1009, 1694, -93, -273490, -619640, -274330
21053, 1129, 1922, -84, -230650, -627550, -318990
21073, 1025, 1701, -83, -249690, -546490, -345800
21093, 912, 1379, -98, -269360, -462770, -277900
21113, 800, 1115, -58, -299600, -359170, -159110
21133, 713, 953, 8, -339290, -228200, -95480
21153, 759, 1054, -8, -315140, -160090, -132720
21173, 869, 1281, -39, -225680, -166390, -248850
21193, 888, 1343, -30, -172200, -132720, -312060
21213, 789, 1159, 2, -165970, -39690, -227360
21233, 706, 941, -18, -137760, 30240, -61950
21253, 612, 745, -23, -78260, 60900, 37310
21273, 491, 581, 5, -46970, 120470, 31850
21293, 417, 514, 28, -19880, 183890, -28630
21313, 383, 504, 29, 33950, 209230, -86380
21333, 380, 511, 9, 100870, 205660, -103320
21353, 364, 491, 5, 152880, 205590, -70700
21373, 332, 461, 12, 171010, 234290, -4410
21393, 297, 417, 31, 171640, 273070, 63980
21413, 284, 389, 39, 179550, 293230, 114450
21433, 307, 400, 26, 207060, 283850, 137410
21453, 340, 442, 5, 245070, 263830, 132930
21473, 378, 508, -9, 274610, 263550, 113120
21493, 442, 612, -17, 287560, 292670, 91630
21513, 549, 815, -46, 289940, 337610, 77490
21533, 706, 1073, -82, 286510, 390180, 76510
21553, 866, 1401, -85, 268380, 466060, 79170
21573, 941, 1646, -77, 236600, 563430, 54040
21593, 819, 1453, -89, 225400, 631890, 16520
21613, 635, 1096, -77, 236600, 661290, 48650
21633, 522, 884, -25, 225750, 695240, 95410
21653, 556, 947, -14, 214060, 709660, 39270
21673, 696, 1179, -30, 248710, 663740, -86240
21693, 889, 1530, -40, 297360, 604590, -183890
21713, 1043, 1868, -50, 322980, 579950, -244930
21733, 943, 1687, -35, 344750, 566930, -283710
21753, 729, 1327, 59, 349020, 564480, -247240
21773, 670, 1189, 78, 333270, 569730, -169540
21793, 712, 1166, 35, 385000, 479710, -135660
21813, 731, 1170, 53, 450800, 349440, -118650
21833, 793, 1303, 70, 433300, 298270, -113540
21853, 853, 1407, 65, 391090, 268660, -149590
21873, 819, 1336, 90, 367220, 217420, -162960
21893, 714, 1146, 119, 322140, 179480, -101220
21913, 620, 941, 128, 254310, 148470, -5670
21933, 554, 773, 110, 211050, 83720, 70980
21953, 504, 674, 92, 142800, -57540, 52220
21973, 462, 640, 100, 71050, -82250, -9240
21993, 419, 620, 117, -6510, -102550, -45570
22013, 385, 594, 116, -70070, -146510, -40180
22033, 362, 565, 96, -123200, -209440, -7910
22053, 346, 539, 76, -178710, -266700, 24220
22073, 334, 527, 55, -238350, -307650, 37800
22093, 333, 538, 44, -295400, -336280, 27160
22113, 353, 585, 32, -343910, -360640, 770
22133, 378, 663, 33, -384090, -383810, -21210
22153, 403, 754, 36, -414820, -412160, -19320
22173, 425, 841, 45, -425040, -461790, 12810
22193, 479, 945, 30, -400120, -543900, 58940
22213, 595, 1095, -17, -340480, -647290, 84840
22233, 738, 1321, -47, -294560, -708330, 76930
22253, 784, 1403, -37, -290220, -703710, 65030
22273, 709, 1242, -19, -295610, -676060, 78610
22293, 634, 1048, -32, -267610, -672210, 77140
22313, 610, 963, -45, -219030, -679070, 20650
22333, 654, 1055, -41, -188090, -662060, -87640
22353, 773, 1270, -32, -178080, -626640, -185990
22373, 950, 1584, -26, -173040, -590450, -236040
22393, 1108, 1812, -70, -155890, -563710, -244440
22413, 1031, 1601, -64, -146020, -516250, -224000
22433, 861, 1264, -40, -166530, -424200, -196560
22453, 741, 1057, -13, -187600, -328510, -186130
22473, 697, 968, -4, -193690, -253960, -190050
22493, 708, 977, 7, -179690, -200620, -194670
22513, 770, 1095, 11, -145320, -163870, -214970
22533, 846, 1228, 0, -95550, -139790, -235060
22553, 864, 1234, -25, -53200, -105770, -217420
22573, 766, 1056, -18, -38290, -35840, -154700
22593, 638, 848, 5, -40670, 59360, -80500
22613, 522, 673, 30, -24710, 128730, -39060
22633, 446, 559, 33, 18760, 155820, -31080
22653, 406, 511, 24, 77560, 156100, -38780
22673, 380, 478, 12, 130620, 157570, -36890
22693, 364, 454, 3, 166950, 174090, -19950
22713, 339, 436, 4, 185640, 207690, 3360
22733, 324, 430, 8, 194390, 248850, 24710
22753, 326, 443, 7, 204260, 282240, 42700
22773, 341, 476, 2, 217140, 305200, 59150
22793, 370, 523, -3, 229740, 325150, 76090
22813, 423, 600, -13, 241710, 346920, 89110
22833, 507, 732, -23, 252420, 374290, 88900
22853, 633, 937, -48, 262850, 408450, 71680
22873, 786, 1219, -74, 268100, 454650, 36470
22893, 840, 1402, -76, 257390, 522620, -15330
22913, 757, 1327, -65, 240590, 594790, -55720
22933, 610, 1084, -38, 225890, 650790, -34370
22953, 516, 868, -2, 218400, 672000, 19530
22973, 506, 818, 13, 234990, 644980, 14140
22993, 598, 968, -1, 281470, 580020, -76160
23013, 777, 1302, -23, 336210, 511280, -198380
23033, 995, 1746, -46, 368130, 475300, -299460
23053, 1091, 1973, -43, 373100, 476350, -346710
23073, 921, 1674, 34, 358050, 500080, -297780
23093, 750, 1303, 100, 343000, 510300, -159600
23113, 726, 1163, 61, 385280, 427000, -56280
23133, 738, 1152, 38, 450520, 294070, -46760
23153, 782, 1268, 56, 455980, 221200, -101080
23173, 851, 1405, 70, 407330, 201740, -164500
23193, 853, 1395, 91, 354550, 178990, -158760
23213, 763, 1219, 127, 299880, 150430, -66710
23233, 671, 1030, 132, 242900, 110180, 35420
23253, 599, 857, 113, 209440, 35140, 90020
23273, 548, 750, 86, 188790, -50610, 88200
23293, 508, 698, 82, 149310, -110320, 41230
23313, 449, 663, 106, 74760, -128100, -15540
23333, 400, 628, 120, -14700, -132720, -39830
23353, 363, 579, 107, -87220, -167440, -20370
23373, 347, 541, 75, -136570, -237370, 19110
23393, 344, 525, 48, -177380, -311640, 42630
23413, 341, 537, 33, -228760, -356720, 30520
23433, 330, 569, 33, -293020, -370650, -7840
23453, 318, 604, 35, -356090, -374360, -42420
23473, 312, 644, 33, -402920, -393400, -44940
23493, 325, 689, 27, -428190, -438550, -11830
23513, 379, 769, 11, -430990, -506660, 36750
23533, 489, 917, -12, -411880, -586040, 69650
23553, 659, 1222, -24, -378770, -655970, 60970
23573, 758, 1474, -18, -350140, -698390, 9450
23593, 748, 1433, -29, -337890, -717430, -31010
23613, 690, 1191, -83, -312480, -745080, 8050
23633, 638, 1010, -85, -256480, -779520, 64400
23653, 607, 976, -45, -230230, -754110, 28910
23673, 669, 1104, -22, -245280, -674520, -78120
23693, 833, 1395, -22, -247030, -617890, -183960
23713, 1038, 1772, -51, -226590, -595840, -260400
23733, 1141, 1921, -86, -200480, -584220, -317730
23753, 1037, 1650, -83, -182560, -556430, -333340
23773, 886, 1293, -55, -247170, -361760, -179340
23793, 822, 1137, -26, -265020, -261100, -151480
23813, 816, 1140, -7, -248500, -192080, -199010
23833, 872, 1286, -6, -202790, -151200, -275870
23853, 920, 1392, -16, -148960, -116550, -300300
23873, 880, 1294, -23, -113400, -62160, -225820
23893, 771, 1062, -25, -93940, 10920, -100380
23913, 657, 838, -12, -80850, 89670, -23030
23933, 549, 680, 15, -58380, 155820, -27230
23953, 475, 601, 29, -3220, 182840, -76650
23973, 447, 585, 19, 72030, 179060, -119070
23993, 434, 579, 0, 135520, 177590, -119350
24013, 408, 548, -9, 166250, 205730, -75180
24033, 361, 496, -1, 167440, 262710, -10360
24053, 318, 450, 13, 165130, 316400, 48090
24073, 296, 417, 22, 180670, 339430, 87080
24093, 292, 406, 20, 214270, 334110, 105770
24113, 302, 416, 5, 253050, 321020, 107240
24133, 315, 442, -6, 283920, 320670, 100730
24153, 345, 491, -21, 303030, 337470, 92260
24173, 389, 560, -43, 309050, 370160, 84770
24193, 456, 658, -66, 297990, 424270, 74620
24213, 546, 810, -80, 271460, 501900, 46060
24233, 690, 1147, -65, 244860, 587720, -16450
24253, 870, 1556, -67, 244090, 648480, -83650
24273, 926, 1645, -83, 277410, 661780, -85960
24293, 758, 1312, -73, 292950, 674030, -32830
24313, 597, 1038, -35, 283500, 695100, -35000
24333, 544, 989, 0, 295890, 683270, -118020
24353, 630, 1147, 7, 345660, 625310, -208740
24373, 828, 1460, -13, 409220, 545230, -256550
24393, 1043, 1846, -38, 450870, 486570, -274050
24413, 1085, 1959, -25, 455000, 471380, -280140
24433, 913, 1666, 45, 434070, 477960, -233660
24453, 777, 1360, 81, 434000, 441070, -125300
24473, 750, 1218, 59, 467250, 343420, -26740
24493, 755, 1193, 66, 477540, 259770, 9660
24513, 816, 1310, 73, 445760, 216790, -24920
24533, 882, 1432, 80, 401730, 178360, -73360
24553, 871, 1412, 100, 348950, 142310, -60270
24573, 774, 1242, 122, 283430, 108570, 13860
24593, 660, 1016, 130, 216720, 64540, 103320
24613, 567, 810, 124, 165900, -560, 157850
24633, 500, 676, 108, 122640, -70700, 150010
24653, 444, 612, 104, 69930, -125370, 93310
24673, 405, 587, 106, 1750, -161700, 28700
24693, 354, 555, 107, -73080, -194670, -6160
24713, 314, 520, 95, -143920, -239050, -2450
24733, 281, 484, 69, -206220, -296800, 20510
24753, 265, 465, 43, -263620, -353780, 36400
24773, 261, 469, 20, -322000, -394520, 32060
24793, 264, 500, 11, -382200, -416990, 11130
24813, 272, 550, 10, -437920, -429660, -14700
24833, 283, 617, 10, -479430, -449400, -28770
24853, 295, 688, 17, -500290, -488040, -19530
24873, 330, 776, 17, -498610, -550760, 12040
24893, 442, 936, -12, -469420, -640080, 43680
24913, 657, 1285, -64, -412790, -741790, 37310
24933, 782, 1571, -65, -363300, -809340, -17430
24953, 727, 1469, -54, -354410, -818020, -51380
24973, 660, 1189, -108, -341320, -821030, 7070
24993, 671, 1064, -127, -286650, -840420, 65380
25013, 696, 1123, -71, -266560, -794360, 1050
25033, 755, 1320, -16, -300720, -685160, -148190
25053, 896, 1582, -40, -312130, -615790, -274120
25073, 1051, 1782, -88, -277550, -615860, -320390
25093, 1089, 1801, -88, -248360, -606200, -311640
25113, 1041, 1642, -93, -254590, -538090, -281260
25133, 946, 1392, -76, -278040, -444150, -229530
25153, 851, 1202, -31, -313110, -324520, -174300
25173, 792, 1114, 9, -333550, -205870, -154420
25193, 831, 1201, -20, -296170, -146160, -185220
25213, 881, 1279, -43, -212030, -141890, -241780
25233, 837, 1207, -31, -162540, -101290, -241360
25253, 747, 1027, -11, -157990, -6580, -153300
25273, 668, 860, -6, -140910, 77210, -45430
25293, 583, 729, 0, -92750, 123900, -8050
25313, 510, 654, 9, -37730, 161070, -38150
25333, 465, 609, 7, 17640, 192780, -85890
25353, 431, 575, -3, 72730, 215740, -101850
25373, 387, 525, -6, 116900, 241850, -72240
25393, 335, 465, 6, 142870, 280490, -18480
25413, 301, 426, 24, 157850, 323190, 32970
25433, 285, 407, 29, 181440, 345030, 63840
25453, 293, 414, 16, 222600, 334670, 74690
25473, 302, 425, -6, 268800, 311150, 78400
25493, 309, 437, -31, 303170, 301910, 83930
25513, 308, 452, -39, 317310, 323890, 93380
25533, 326, 488, -42, 313460, 374570, 99750
25553, 384, 584, -52, 305970, 431550, 93940
25573, 494, 769, -80, 303450, 480340, 36960
25593, 670, 1099, -104, 285740, 599690, 4690
25613, 877, 1546, -84, 276010, 675080, -28980
25633, 1045, 1865, -114, 314020, 699020, -59640
25653, 870, 1537, -154, 353220, 700770, -67550
25673, 615, 1156, -105, 322280, 764120, -93660
25693, 484, 992, -15, 315630, 796320, -141890
25713, 565, 1127, 0, 383740, 726530, -194950
25733, 779, 1414, -30, 483210, 607040, -215040
25753, 1085, 1947, -84, 548590, 526470, -246540
25773, 1203, 1997, -104, 560210, 511000, -313110
25793, 976, 1884, -34, 538860, 526050, -275870
25813, 736, 1461, 76, 501690, 538370, -86800
25833, 701, 1245, 73, 517160, 457590, 76300
25853, 718, 1170, 84, 539140, 352380, 137690
25873, 824, 1314, 47, 537320, 264040, 79450
25893, 904, 1488, 44, 501130, 204050, -20230
25913, 879, 1473, 73, 411460, 197890, -18340
25933, 748, 1259, 118, 291270, 210770, 95270
25953, 611, 1006, 170, 180250, 192220, 213080
25973, 530, 800, 170, 126840, 97230, 259630
25993, 486, 668, 131, 116130, -40670, 231840
26013, 462, 608, 96, 92470, -146860, 155470
26033, 434, 597, 82, 23660, -190610, 67830
26053, 382, 585, 99, -81550, -193550, 10990
26073, 311, 544, 116, -192010, -199220, 10010
26093, 247, 486, 108, -276430, -247100, 46830
26113, 223, 440, 63, -324240, -342440, 78120
26133, 239, 440, 7, -355390, -441210, 67620
26153, 275, 494, -19, -404320, -488250, 10500
26173, 297, 578, -12, -482860, -475230, -63770
26193, 293, 673, 14, -564200, -448210, -111860
26213, 285, 771, 28, -607530, -469490, -103040
26233, 302, 863, 10, -595350, -563850, -34370
26253, 398, 984, -42, -540050, -703500, 57540
26273, 630, 1292, -107, -469910, -831250, 99120
26293, 822, 1677, -124, -424970, -892920, 46060
26313, 736, 1638, -67, -427840, -876470, -17150
26333, 566, 1187, -95, -419930, -863240, 58660
26353, 606, 987, -186, -328790, -920220, 155890
26373, 659, 1059, -142, -274050, -904470, 52010
26393, 680, 1246, -12, -335720, -754530, -162890
26413, 845, 1630, -10, -372470, -652750, -307720
26433, 1175, 1997, -168, -296240, -705040, -352590
26453, 1213, 1997, -181, -226590, -751240, -344330
26473, 986, 1583, -118, -283010, -628600, -271390
26493, 852, 1264, -82, -365540, -461930, -181300
26513, 776, 1106, -43, -403900, -336630, -139020
26533, 761, 1086, -7, -396200, -252000, -154980
26553, 874, 1290, -46, -329000, -225540, -214900
26573, 971, 1475, -69, -247030, -219590, -288050
26593, 882, 1347, -33, -231210, -139370, -261450
26613, 747, 1048, -14, -233450, -29120, -101640
26633, 660, 810, -28, -184800, 24220, 53970
26653, 572, 653, -27, -121170, 56070, 73780
26673, 486, 583, 4, -85610, 119490, -7070
26693, 425, 559, 30, -55650, 185150, -97300
26713, 398, 539, 29, -840, 209300, -122710
26733, 382, 501, 8, 64260, 202370, -75880
26753, 346, 449, 9, 110040, 204680, 1750
26773, 305, 393, 28, 128240, 234150, 69860
26793, 279, 359, 42, 140560, 264110, 107660
26813, 272, 350, 48, 166250, 267260, 111580
26833, 281, 364, 38, 202440, 249270, 98420
26853, 310, 400, 17, 242690, 224630, 83370
26873, 342, 450, 1, 278180, 210980, 76930
26893, 388, 532, -11, 294070, 228340, 83090
26913, 455, 654, -26, 288540, 275240, 98000
26933, 576, 855, -37, 269010, 341040, 118860
26953, 833, 1315, -47, 247030, 415520, 131390
26973, 1116, 1875, -89, 247030, 478170, 113050
26993, 1090, 1838, -190, 287350, 507920, 74130
27013, 744, 1320, -163, 306810, 554750, 73780
27033, 503, 953, -85, 224700, 697900, 108920
27053, 447, 847, -1, 147770, 809620, 106750
27073, 573, 985, -8, 152530, 799750, 50120
27093, 812, 1311, -65, 239890, 686000, -26880
27113, 1068, 1810, -98, 319900, 591500, -108780
27133, 1148, 1997, -120, 338520, 580580, -223860
27153, 896, 1667, -65, 331450, 608090, -323400
27173, 670, 1303, 59, 308000, 655620, -290500
27193, 647, 1176, 64, 308770, 661710, -185430
27213, 687, 1119, 51, 387800, 543830, -106680
27233, 761, 1220, 31, 454580, 409080, -60340
27253, 848, 1424, 11, 470960, 319130, -112630
27273, 860, 1461, 31, 460180, 261590, -219310
27293, 733, 1250, 94, 403970, 255360, -219660
27313, 611, 1007, 140, 306180, 278040, -91700
27333, 536, 806, 146, 240310, 243460, 56770
27353, 506, 675, 107, 230230, 138180, 141960
27373, 484, 617, 76, 231140, 21000, 138530
27393, 447, 589, 79, 195930, -47110, -19530
27413, 395, 567, 108, 21000, -45780, -66990
27433, 352, 542, 118, -59010, -65870, -54880
27453, 311, 507, 118, -123340, -117950, 840
27473, 282, 454, 95, -176890, -188930, 65310
27493, 263, 415, 68, -222950, -259560, 101500
27513, 273, 405, 35, -265930, -313110, 91490
27533, 309, 450, 14, -313950, -336420, 42490
27553, 344, 533, 19, -368900, -330820, -17220
27573, 376, 653, 45, -421400, -321020, -54110
27593, 401, 790, 77, -452620, -345520, -43050
27613, 452, 938, 90, -436800, -436380, 17080
27633, 662, 1228, 4, -356300, -591990, 83300
27653, 946, 1653, -102, -262430, -724080, 89390
27673, 962, 1755, -73, -261870, -720090, 62370
27693, 701, 1314, 0, -329000, -627830, 128380
27713, 552, 919, 2, -310590, -614950, 233660
27733, 575, 839, -47, -220220, -665490, 194950
27753, 675, 1033, -47, -164010, -671020, 17570
27773, 839, 1423, -11, -165060, -621390, -162050
27793, 1075, 1903, -20, -161000, -590520, -233380
27813, 1211, 1990, -107, -101430, -612850, -177520
27833, 1031, 1528, -100, -53060, -590240, -88340
27853, 838, 1166, -56, -83580, -468440, -85260
27873, 712, 996, 1, -138180, -329980, -149450
27893, 684, 982, 26, -153230, -242130, -198310
27913, 720, 1047, 29, -110740, -219590, -216510
27933, 822, 1196, -15, -33180, -234570, -224840
27953, 903, 1288, -62, 28910, -233590, -226240
27973, 832, 1155, -44, 18480, -148260, -193900
27993, 680, 927, 4, -35280, -280, -120190
28013, 559, 733, 42, -41720, 97510, -60270
28033, 480, 611, 46, 17290, 109900, -44030
28053, 446, 556, 19, 100660, 83440, -53760
28073, 428, 524, -5, 163870, 74060, -60060
28093, 404, 494, -18, 187530, 109270, -49070
28113, 364, 462, -12, 180950, 180810, -23520
28133, 325, 435, 7, 165970, 259560, 6790
28153, 307, 430, 20, 163450, 313040, 33110
28173, 313, 442, 26, 180670, 330050, 55790
28193, 338, 467, 11, 208950, 323890, 78470
28213, 366, 501, -8, 233100, 320250, 97020
28233, 406, 548, -25, 241710, 340410, 104090
28253, 461, 621, -36, 238420, 383040, 88970
28273, 550, 773, -40, 232120, 437570, 39340
28293, 681, 1050, -48, 232400, 491330, -46550
28313, 838, 1400, -64, 243740, 536270, -140770
28333, 864, 1516, -66, 255080, 575890, -175700
28353, 711, 1227, -20, 244790, 621460, -104580
28373, 583, 976, 30, 230370, 647430, -26670
28393, 558, 930, 26, 267750, 601650, -51100
28413, 636, 1061, 7, 342230, 509320, -143500
28433, 778, 1310, 1, 395920, 436520, -226380
28453, 963, 1654, -16, 409920, 405300, -273840
28473, 1065, 1864, -7, 400680, 400890, -290640
28493, 940, 1678, 73, 373170, 416290, -246470
28513, 816, 1383, 92, 363160, 398020, -132090
28533, 754, 1150, 61, 401100, 302540, -8470
28553, 712, 1065, 57, 425040, 211260, 32970
28573, 741, 1170, 77, 397600, 175980, -29120
28593, 782, 1272, 96, 349930, 155960, -107870
28613, 788, 1254, 111, 301280, 123270, -101990
28633, 743, 1143, 116, 250180, 78330, -15120
28653, 674, 998, 117, 198800, 27160, 70770
28673, 609, 865, 106, 154490, -30940, 102270
28693, 540, 749, 95, 112910, -89530, 84770
28713, 466, 661, 102, 56280, -129010, 45010
28733, 415, 617, 108, -12460, -155120, 6790
28753, 370, 579, 102, -76160, -191170, -9730
28773, 338, 537, 78, -128940, -244440, 2170
28793, 319, 503, 49, -175490, -304500, 28140
28813, 307, 487, 32, -226520, -350350, 43330
28833, 306, 498, 26, -286580, -370720, 33670
28853, 314, 547, 32, -346080, -377370, 3710
28873, 328, 616, 36, -393120, -388150, -30660
28893, 352, 702, 29, -420630, -418460, -49420
28913, 383, 792, 28, -428960, -471170, -39410
28933, 451, 898, 10, -421750, -538720, -1890
28953, 592, 1102, -28, -393050, -619500, 37380
28973, 754, 1389, -55, -344750, -696990, 38150
28993, 768, 1433, -35, -314650, -729750, 9450
29013, 656, 1148, -47, -318780, -714910, 25410
29033, 602, 955, -66, -305760, -707140, 81900
29053, 581, 915, -47, -266140, -704340, 68110
29073, 618, 1020, -24, -246540, -665630, -34580
29093, 755, 1258, -28, -234290, -622650, -150570
29113, 933, 1566, -45, -208110, -607320, -230090
29133, 1031, 1675, -62, -190120, -589260, -269710
29153, 972, 1505, -59, -185010, -547260, -257740
29173, 883, 1300, -52, -191450, -476770, -216930
29193, 810, 1172, -23, -204890, -391510, -198310
29213, 780, 1112, -7, -223580, -221130, -205660
29233, 806, 1140, -2, -180040, -176050, -208670
29253, 849, 1212, -11, -131180, -139860, -221620
29273, 849, 1213, -12, -94920, -86450, -212380
29293, 797, 1118, -17, -69720, -18760, -165480
29313, 707, 955, -5, -48650, 55860, -101150
29333, 606, 790, 10, -24920, 124950, -60550
29353, 525, 676, 22, 18270, 165830, -55090
29373, 477, 615, 17, 79800, 177660, -65380
29393, 450, 585, 0, 138810, 185290, -66430
29413, 419, 548, -6, 177450, 212450, -46900
29433, 393, 526, -11, 196280, 259070, -20230
29453, 356, 500, 3, 209790, 305690, 5810
29473, 343, 496, 5, 231070, 333620, 32760
29493, 345, 502, -4, 260050, 343070, 59850
29513, 351, 514, -20, 282450, 356090, 83720
29533, 357, 532, -27, 292810, 384090, 98210
29553, 374, 568, -33, 295750, 421540, 100660
29573, 414, 634, -40, 296170, 459830, 88270
29593, 474, 724, -48, 293860, 499660, 62580
29613, 554, 869, -56, 291620, 541310, 18900
29633, 662, 1097, -63, 293580, 582330, -43330
29653, 761, 1318, -66, 300510, 617400, -94500
29673, 785, 1384, -60, 302190, 648130, -103530
29693, 701, 1242, -25, 299740, 669060, -89390
29713, 628, 1117, 0, 316610, 655690, -95270
29733, 618, 1095, 11, 356020, 607040, -126560
29753, 676, 1175, 11, 401870, 541870, -162960
29773, 780, 1341, 7, 435610, 482930, -197260
29793, 892, 1559, 8, 449540, 441910, -227920
29813, 948, 1670, 23, 445620, 416850, -230790
29833, 894, 1557, 59, 432250, 392350, -170240
29853, 806, 1353, 85, 415310, 354900, -62160
29873, 762, 1215, 86, 412020, 287770, 14070
29893, 750, 1164, 76, 411460, 211960, 21630
29913, 745, 1167, 87, 386470, 157710, -11130
29933, 728, 1147, 104, 331520, 127050, -29820
29953, 694, 1080, 117, 268870, 94850, -980
29973, 650, 981, 127, 211120, 48860, 54950
29993, 604, 884, 129, 156520, -5740, 93380
30013, 557, 798, 119, 107030, -67830, 94500
30033, 516, 737, 105, 60830, -131460, 66430
30053, 477, 692, 96, 9100, -185710, 29680
30073, 437, 657, 92, -54810, -224350, 3570
30093, 390, 617, 89, -125860, -255360, -1890
30113, 343, 572, 77, -192640, -291900, 9240
30133, 318, 539, 50, -246330, -341250, 23170
30153, 309, 527, 24, -291620, -391090, 24710
30173, 309, 547, 12, -340340, -422170, 8540
30193, 316, 591, 11, -393260, -434420, -16800
30213, 326, 653, 17, -439250, -445480, -34650
30233, 344, 730, 18, -464940, -475300, -30590
30253, 389, 822, 10, -463260, -532140, -3010
30273, 480, 958, -13, -436240, -608650, 30730
30293, 611, 1154, -40, -394030, -686000, 43750
30313, 728, 1363, -55, -354620, -737590, 23730
30333, 739, 1389, -51, -333830, -751380, -2590
30353, 687, 1223, -59, -323540, -743890, 14000
30373, 661, 1070, -81, -293580, -740530, 40740
30393, 656, 1048, -63, -259070, -722470, -140
30413, 672, 1102, -36, -253120, -665420, -99400
30433, 748, 1224, -31, -254520, -606970, -190260
30453, 858, 1388, -39, -241780, -571060, -239680
30473, 947, 1526, -41, -227430, -537180, -264110
30493, 982, 1547, -55, -216650, -492100, -271880
30513, 939, 1401, -60, -210070, -435820, -252070
30533, 850, 1210, -33, -224070, -349090, -206430
30553, 769, 1070, 3, -247520, -238630, -169470
30573, 751, 1040, 7, -236530, -157850, -163660
30593, 779, 1080, -13, -182280, -125720, -184520
30613, 784, 1088, -17, -124040, -98630, -201880
30633, 745, 1032, -5, -92960, -38290, -186900
30653, 686, 930, 0, -72660, 35630, -136780
30673, 616, 807, 6, -42840, 96530, -78470
30693, 544, 698, 12, -3220, 143710, -42840
30713, 486, 625, 11, 43120, 180600, -37730
30733, 448, 592, 2, 97790, 203210, -49210
30753, 423, 570, -8, 149730, 221690, -54040
30773, 392, 538, -10, 186620, 250950, -37940
30793, 359, 511, -3, 207340, 293650, -5040
30813, 337, 498, 2, 221690, 336980, 30450
30833, 339, 507, 0, 243740, 362110, 59640
30853, 356, 529, -19, 273770, 368550, 84910
30873, 372, 554, -33, 299180, 375270, 102760
30893, 396, 604, -37, 308350, 402220, 108010
30913, 445, 689, -47, 306810, 444850, 97370
30933, 519, 812, -57, 304220, 488740, 73990
30953, 607, 977, -60, 300790, 532420, 41860
30973, 692, 1182, -61, 294910, 579110, -4760
30993, 734, 1296, -64, 294630, 619640, -60130
31013, 677, 1203, -36, 297640, 649040, -83720
31033, 600, 1058, -2, 290080, 666610, -59920
31053, 581, 1006, 6, 331240, 615370, -99190
31073, 629, 1088, 6, 373520, 552370, -158200
31093, 727, 1257, 12, 399070, 505540, -206290
31113, 841, 1466, 10, 415520, 467600, -233240
31133, 936, 1627, 3, 424410, 433790, -232890
31153, 896, 1567, 40, 410900, 416780, -185290
31173, 802, 1378, 82, 393540, 389200, -99400
31193, 742, 1202, 79, 401310, 314790, -25550
31213, 702, 1094, 79, 403970, 237090, 280
31233, 693, 1076, 82, 379680, 185360, -21560
31253, 711, 1109, 85, 340060, 143430, -46200
31273, 703, 1084, 104, 287350, 108500, -30170
31293, 690, 1048, 116, 225540, 75460, 9100
31313, 665, 997, 125, 169120, 31150, 37800
31333, 624, 931, 126, 122640, -27580, 50260
31353, 588, 850, 101, 84140, -98700, 52710
31373, 531, 756, 92, 33950, -153440, 46130
31393, 471, 677, 91, -33670, -181860, 31080
31413, 413, 617, 91, -102760, -205870, 17010
31433, 366, 569, 86, -164150, -239820, 15890
31453, 331, 530, 73, -214480, -286790, 24850
31473, 324, 519, 49, -257460, -336910, 26460
31493, 333, 541, 28, -301980, -373380, 9590
31513, 354, 601, 25, -350630, -390600, -18900
31533, 367, 670, 29, -394450, -401940, -39200
31553, 378, 735, 32, -420770, -429240, -33460
31573, 402, 798, 22, -422170, -484470, -350
31593, 455, 870, -1, -400680, -558110, 42000
31613, 540, 974, -23, -369040, -622930, 63210
31633, 618, 1108, -30, -345800, -654710, 47600
31653, 638, 1168, -14, -339570, -653520, 23450
31673, 621, 1108, -14, -330890, -650230, 34860
31693, 628, 1031, -41, -293160, -666960, 57960
31713, 663, 1040, -50, -244650, -674940, 28490
31733, 715, 1151, -29, -218400, -644000, -56700
31753, 777, 1267, -23, -204960, -600670, -133350
31773, 357, -308, 145, -182980, -574700, -163660
31793, 1612, 1997, -1302, 2870, -681520, -561050
31813, 1049, 1997, -145, 225540, -750120, -1744820
31833, -883, 1444, -77, -241850, 182490, -333760
31853, -1081, 173, 262, -646240, 354200, 1590960
31873, -108, -542, -161, -407890, -195440, 1960210
31893, 169, -1282, -223, 69230, -529060, 1526140
31913, -213, -411, -49, 280490, -377790, 510720
31933, -641, 666, -66, 325640, -192710, -748790
31953, -140, 1487, -72, 389620, -266910, -1555190
31973, 734, 1997, 54, 309400, -294000, -1757210
31993, 1042, 1997, -279, 70700, -184450, -1262170
32013, -181, 1670, 413, -359800, 99330, 52780
32033, 898, 58, -166, -464240, 73360, 1401750
32053, 709, 547, -542, 306390, -604800, 1162000
32073, 485, 724, -317, 454160, -606760, -292040
32093, 210, 718, 45, 11760, 71820, -1015140
32113, 279, 872, 100, -181440, 619850, -995960
32133, 197, 817, 132, -142380, 680960, -565740
32153, 53, 695, 69, -174790, 564480, 78610
32173, -42, 392, 116, -262640, 404040, 605080
32193, 100, -10, 131, -274330, 226590, 843010
32213, 310, -100, 52, -80640, -28980, 764120
32233, 473, 495, -97, 189350, -234920, 384790
32253, 1019, 1591, -406, 363510, -345240, -253960
32273, 1393, 1997, -310, 300300, -259560, -850220
32293, 802, 1997, -76, -118930, 312200, -982940
32313, 141, 1300, 204, -376530, 787290, -393190
32333, 73, 272, 337, -332080, 705950, 596120
32353, 265, -201, 93, -72590, 250600, 971600
32373, 461, 238, -300, 350140, -225890, 609700
32393, 592, 674, -348, 556500, -398300, -100730
32413, 394, 700, -121, 361270, -83790, -639240
32433, 405, 955, 72, 58240, 456750, -781410
32453, 676, 1511, 200, -51660, 758030, -671020
32473, 1032, 1944, -11, 61950, 679350, -385630
32493, 824, 1459, 177, 249480, 437430, 67830
32513, 363, -1361, 1341, 259630, 387940, 463820
32533, 1491, 1942, -272, 358190, 223370, 353290
32553, 1825, 1997, 37, 525280, 43330, -206150
32573, 680, 1513, 431, 281540, 379610, -479150
32593, 440, 712, 189, -87710, 610050, -18200
